"rt","stimulus","response","trial_type","trial_index","plugin_version","time_elapsed","response_mapping","subject_id","list_index","lextale_score","lextale_word_score","lextale_nonword_score","success","timeout","failed_images","failed_audio","failed_video","task","isWord","isDummy","target","prime","prime_type","stimulus_type","correct_response","correct","section","question_order"
"9775","
    <div style=""max-width: 800px; margin: auto; text-align: left;"">
      <h2>STANFORD UNIVERSITY</h2>
      <h3>Research Information Sheet</h3>
      <p><strong>Protocol Director:</strong> Robert Hawkins<br>
      <strong>Protocol Title:</strong> Communication and social cognition in natural audiovisual contexts<br>
      <strong>IRB#:</strong> 77226</p>

      <p><strong>DESCRIPTION:</strong> You are invited to participate in a research study about language and communication. The purpose of the research is to understand how you interact and communicate with other people in naturalistic settings as a fluent English speaker. This research will be conducted through the Prolific platform, including participants from the US, UK, and Canada. If you decide to participate in this research, you will play a communication game in a group with one or more partners.</p>

      <p><strong>TIME INVOLVEMENT:</strong> The task will last the amount of time advertised on Prolific. You are free to withdraw from the study at any time.</p>

      <p><strong>RISKS AND BENEFITS:</strong> You may become frustrated if your partner gets distracted, or experience discomfort if other participants in your group send text that is inappropriate for the task. We ask you to please be respectful of other participants you might be interacting with to mitigate these risks. You may also experience discomfort when being asked to discuss or challenge emotionally salient political beliefs. Study data will be stored securely, in compliance with Stanford University standards, minimizing the risk of confidentiality breach. This study advances our scientific understanding of how people communicate and collaborate in naturalistic settings. This study may lead to further insights about what can go wrong in teamwork, suggest potential interventions to overcome these barriers, and help to develop assistive technologies that collaborate with human partners. We cannot and do not guarantee or promise that you will receive any benefits from this study.</p>

      <p><strong>PAYMENTS:</strong> You will receive payment in the amount advertised on Prolific. If you do not complete this study, you will receive prorated payment based on the time that you have spent. Additionally, you may be eligible for bonus payments as described in the instructions.</p>

      <p><strong>PARTICIPANT’S RIGHTS:</strong> If you have read this form and have decided to participate in this project, please understand your participation is voluntary and you have the right to withdraw your consent or discontinue participation at any time without penalty or loss of benefits to which you are otherwise entitled. The alternative is not to participate. You have the right to refuse to answer particular questions. The results of this research study may be presented at scientific or professional meetings or published in scientific journals. Your individual privacy will be maintained in all published and written data resulting from the study. In accordance with scientific norms, the data from this study may be used or shared with other researchers for future research (after removing personally identifying information) without additional consent from you.</p>

      <p><strong>CONTACT INFORMATION:</strong><br>
      Questions: If you have any questions, concerns or complaints about this research, its procedures, risks and benefits, contact the Protocol Director, Robert Hawkins (<a href=""mailto:rdhawkins@stanford.edu"">rdhawkins@stanford.edu</a>, 217-549-6923).<br>
      Independent Contact: If you are not satisfied with how this study is being conducted, or if you have any concerns, complaints, or general questions about the research or your rights as a participant, please contact the Stanford Institutional Review Board (IRB) to speak to someone independent of the research team at 650-723-2480 or toll free at 1-866-680-2906, or email at <a href=""mailto:irbnon-med@stanford.edu"">irbnon-med@stanford.edu</a>. You can also write to the Stanford IRB, Stanford University, 1705 El Camino Real, Palo Alto, CA 94306.</p>

      <p><strong>Please save or print a copy of this page for your records.</strong></p>
      <p>If you agree to participate in this research, click ""Continue"" below.</p>
    </div>
  ","0","html-button-response","0","2.1.0","9785","J=YES, F=NO","tk13x4ox1y","1","69","63","75","","","","","","","","","","","","","","","",""
"4245","
    <div style=""max-width: 800px; margin: auto; text-align: left;"">
      <h2>Welcome!</h2>
      <p>Thank you for participating in this study. The experiment consists of three parts:</p>
      <ol>
        <li>An English vocabulary test</li>
        <li>A main task in which you will hear and see words, and decide whether the written word is a real English word</li>
        <li>A brief survey about your background</li>
      </ol>
      <p>Each part will be introduced before it begins.</p>
      <p>Please make sure you are in a quiet environment and can hear audio clearly for the final task.</p>
      <p style=""margin-top: 2em;"">Press any key to begin.</p>
    </div>
  ","f","html-keyboard-response","1","2.1.0","14032","J=YES, F=NO","tk13x4ox1y","1","69","63","75","","","","","","","","","","","","","","","",""
"","","","preload","2","2.1.0","16791","J=YES, F=NO","tk13x4ox1y","1","69","63","75","true","false","[]","[]","[]","","","","","","","","","","",""
"8835","
    <div style=""max-width: 800px; margin: auto; text-align: left;"">
      <h2>Part 1: Vocabulary Test</h2>
      <p>You will now complete the first part of the study: a short English vocabulary test.</p>
      <p>This test is called <strong>LexTALE</strong> and helps us get a general sense of your English proficiency.</p>
      <p style=""margin-top: 2em;"">Press any key to continue.</p>
    </div>
  ","j","html-keyboard-response","3","2.1.0","25626","J=YES, F=NO","tk13x4ox1y","1","69","63","75","","","","","","","","","","","","","","","",""
"6892","
    <div style=""max-width: 800px; margin: auto; text-align: left;"">
      <h2>LexTALE Vocabulary Test</h2>
      <p>In this test, you will see a series of letter strings—one at a time.</p>
      <p>Your task is to decide whether each string is a real English word.</p>
      <p><strong>Key responses:</strong></p>
      <ul>
        <li><strong>J</strong> = YES (real English word)</li>
        <li><strong>F</strong> = NO (not a real English word)</li>
      </ul>
      <p>There is no time limit, but please try to be accurate.</p>
      <p style=""margin-top: 2em;"">Press any key to begin.</p>
    </div>
  "," ","html-keyboard-response","4","2.1.0","32519","J=YES, F=NO","tk13x4ox1y","1","69","63","75","","","","","","","","","","","","","","","",""
"1482","
  <p style=""font-size: 40px;"">platery</p>
  <p style=""font-size: 16px;"">J = YES &nbsp;&nbsp;&nbsp; F = NO</p>
","j","html-keyboard-response","5","2.1.0","34002","J=YES, F=NO","tk13x4ox1y","1","69","63","75","","","","","","lextale","false","true","","","","","","","",""
"842","
  <p style=""font-size: 40px;"">denial</p>
  <p style=""font-size: 16px;"">J = YES &nbsp;&nbsp;&nbsp; F = NO</p>
","j","html-keyboard-response","6","2.1.0","34845","J=YES, F=NO","tk13x4ox1y","1","69","63","75","","","","","","lextale","true","true","","","","","","","",""
"3119","
  <p style=""font-size: 40px;"">marrit</p>
  <p style=""font-size: 16px;"">J = YES &nbsp;&nbsp;&nbsp; F = NO</p>
","f","html-keyboard-response","7","2.1.0","37965","J=YES, F=NO","tk13x4ox1y","1","69","63","75","","","","","","lextale","false","true","","","","","","","",""
"754","
  <p style=""font-size: 40px;"">bottle</p>
  <p style=""font-size: 16px;"">J = YES &nbsp;&nbsp;&nbsp; F = NO</p>
","j","html-keyboard-response","8","2.1.0","38720","J=YES, F=NO","tk13x4ox1y","1","69","63","75","","","","","","lextale","true","false","","","","","","","",""
"1138","
  <p style=""font-size: 40px;"">birst</p>
  <p style=""font-size: 16px;"">J = YES &nbsp;&nbsp;&nbsp; F = NO</p>
","f","html-keyboard-response","9","2.1.0","39859","J=YES, F=NO","tk13x4ox1y","1","69","63","75","","","","","","lextale","false","false","","","","","","","",""
"1233","
  <p style=""font-size: 40px;"">envy</p>
  <p style=""font-size: 16px;"">J = YES &nbsp;&nbsp;&nbsp; F = NO</p>
","j","html-keyboard-response","10","2.1.0","41093","J=YES, F=NO","tk13x4ox1y","1","69","63","75","","","","","","lextale","true","false","","","","","","","",""
"2027","
  <p style=""font-size: 40px;"">brang</p>
  <p style=""font-size: 16px;"">J = YES &nbsp;&nbsp;&nbsp; F = NO</p>
","f","html-keyboard-response","11","2.1.0","43121","J=YES, F=NO","tk13x4ox1y","1","69","63","75","","","","","","lextale","false","false","","","","","","","",""
"742","
  <p style=""font-size: 40px;"">huge</p>
  <p style=""font-size: 16px;"">J = YES &nbsp;&nbsp;&nbsp; F = NO</p>
","j","html-keyboard-response","12","2.1.0","43864","J=YES, F=NO","tk13x4ox1y","1","69","63","75","","","","","","lextale","true","false","","","","","","","",""
"861","
  <p style=""font-size: 40px;"">plove</p>
  <p style=""font-size: 16px;"">J = YES &nbsp;&nbsp;&nbsp; F = NO</p>
","f","html-keyboard-response","13","2.1.0","44725","J=YES, F=NO","tk13x4ox1y","1","69","63","75","","","","","","lextale","false","false","","","","","","","",""
"606","
  <p style=""font-size: 40px;"">border</p>
  <p style=""font-size: 16px;"">J = YES &nbsp;&nbsp;&nbsp; F = NO</p>
","j","html-keyboard-response","14","2.1.0","45332","J=YES, F=NO","tk13x4ox1y","1","69","63","75","","","","","","lextale","true","false","","","","","","","",""
"1050","
  <p style=""font-size: 40px;"">flimsy</p>
  <p style=""font-size: 16px;"">J = YES &nbsp;&nbsp;&nbsp; F = NO</p>
","f","html-keyboard-response","15","2.1.0","46383","J=YES, F=NO","tk13x4ox1y","1","69","63","75","","","","","","lextale","true","false","","","","","","","",""
"599","
  <p style=""font-size: 40px;"">drain</p>
  <p style=""font-size: 16px;"">J = YES &nbsp;&nbsp;&nbsp; F = NO</p>
","j","html-keyboard-response","16","2.1.0","46983","J=YES, F=NO","tk13x4ox1y","1","69","63","75","","","","","","lextale","true","false","","","","","","","",""
"1381","
  <p style=""font-size: 40px;"">twindle</p>
  <p style=""font-size: 16px;"">J = YES &nbsp;&nbsp;&nbsp; F = NO</p>
","j","html-keyboard-response","17","2.1.0","48365","J=YES, F=NO","tk13x4ox1y","1","69","63","75","","","","","","lextale","false","false","","","","","","","",""
"1064","
  <p style=""font-size: 40px;"">propose</p>
  <p style=""font-size: 16px;"">J = YES &nbsp;&nbsp;&nbsp; F = NO</p>
","j","html-keyboard-response","18","2.1.0","49430","J=YES, F=NO","tk13x4ox1y","1","69","63","75","","","","","","lextale","true","false","","","","","","","",""
"983","
  <p style=""font-size: 40px;"">forlay</p>
  <p style=""font-size: 16px;"">J = YES &nbsp;&nbsp;&nbsp; F = NO</p>
","f","html-keyboard-response","19","2.1.0","50414","J=YES, F=NO","tk13x4ox1y","1","69","63","75","","","","","","lextale","false","false","","","","","","","",""
"1536","
  <p style=""font-size: 40px;"">tenant</p>
  <p style=""font-size: 16px;"">J = YES &nbsp;&nbsp;&nbsp; F = NO</p>
","j","html-keyboard-response","20","2.1.0","51950","J=YES, F=NO","tk13x4ox1y","1","69","63","75","","","","","","lextale","true","false","","","","","","","",""
"1186","
  <p style=""font-size: 40px;"">strain</p>
  <p style=""font-size: 16px;"">J = YES &nbsp;&nbsp;&nbsp; F = NO</p>
","j","html-keyboard-response","21","2.1.0","53136","J=YES, F=NO","tk13x4ox1y","1","69","63","75","","","","","","lextale","true","false","","","","","","","",""
"1320","
  <p style=""font-size: 40px;"">holster</p>
  <p style=""font-size: 16px;"">J = YES &nbsp;&nbsp;&nbsp; F = NO</p>
","j","html-keyboard-response","22","2.1.0","54457","J=YES, F=NO","tk13x4ox1y","1","69","63","75","","","","","","lextale","true","false","","","","","","","",""
"1219","
  <p style=""font-size: 40px;"">hinder</p>
  <p style=""font-size: 16px;"">J = YES &nbsp;&nbsp;&nbsp; F = NO</p>
","f","html-keyboard-response","23","2.1.0","55677","J=YES, F=NO","tk13x4ox1y","1","69","63","75","","","","","","lextale","true","false","","","","","","","",""
"1124","
  <p style=""font-size: 40px;"">swindle</p>
  <p style=""font-size: 16px;"">J = YES &nbsp;&nbsp;&nbsp; F = NO</p>
","f","html-keyboard-response","24","2.1.0","56802","J=YES, F=NO","tk13x4ox1y","1","69","63","75","","","","","","lextale","true","false","","","","","","","",""
"1078","
  <p style=""font-size: 40px;"">nuder</p>
  <p style=""font-size: 16px;"">J = YES &nbsp;&nbsp;&nbsp; F = NO</p>
","f","html-keyboard-response","25","2.1.0","57881","J=YES, F=NO","tk13x4ox1y","1","69","63","75","","","","","","lextale","false","false","","","","","","","",""
"687","
  <p style=""font-size: 40px;"">pillow</p>
  <p style=""font-size: 16px;"">J = YES &nbsp;&nbsp;&nbsp; F = NO</p>
","j","html-keyboard-response","26","2.1.0","58568","J=YES, F=NO","tk13x4ox1y","1","69","63","75","","","","","","lextale","true","false","","","","","","","",""
"3706","
  <p style=""font-size: 40px;"">shumble</p>
  <p style=""font-size: 16px;"">J = YES &nbsp;&nbsp;&nbsp; F = NO</p>
","j","html-keyboard-response","27","2.1.0","62275","J=YES, F=NO","tk13x4ox1y","1","69","63","75","","","","","","lextale","false","false","","","","","","","",""
"2566","
  <p style=""font-size: 40px;"">thirst</p>
  <p style=""font-size: 16px;"">J = YES &nbsp;&nbsp;&nbsp; F = NO</p>
","j","html-keyboard-response","28","2.1.0","64842","J=YES, F=NO","tk13x4ox1y","1","69","63","75","","","","","","lextale","true","false","","","","","","","",""
"2344","
  <p style=""font-size: 40px;"">unsail</p>
  <p style=""font-size: 16px;"">J = YES &nbsp;&nbsp;&nbsp; F = NO</p>
","f","html-keyboard-response","29","2.1.0","67187","J=YES, F=NO","tk13x4ox1y","1","69","63","75","","","","","","lextale","false","false","","","","","","","",""
"653","
  <p style=""font-size: 40px;"">rifle</p>
  <p style=""font-size: 16px;"">J = YES &nbsp;&nbsp;&nbsp; F = NO</p>
","j","html-keyboard-response","30","2.1.0","67841","J=YES, F=NO","tk13x4ox1y","1","69","63","75","","","","","","lextale","true","false","","","","","","","",""
"1382","
  <p style=""font-size: 40px;"">mush</p>
  <p style=""font-size: 16px;"">J = YES &nbsp;&nbsp;&nbsp; F = NO</p>
","j","html-keyboard-response","31","2.1.0","69223","J=YES, F=NO","tk13x4ox1y","1","69","63","75","","","","","","lextale","false","false","","","","","","","",""
"976","
  <p style=""font-size: 40px;"">drench</p>
  <p style=""font-size: 16px;"">J = YES &nbsp;&nbsp;&nbsp; F = NO</p>
","f","html-keyboard-response","32","2.1.0","70200","J=YES, F=NO","tk13x4ox1y","1","69","63","75","","","","","","lextale","true","false","","","","","","","",""
"882","
  <p style=""font-size: 40px;"">snirt</p>
  <p style=""font-size: 16px;"">J = YES &nbsp;&nbsp;&nbsp; F = NO</p>
","f","html-keyboard-response","33","2.1.0","71083","J=YES, F=NO","tk13x4ox1y","1","69","63","75","","","","","","lextale","false","false","","","","","","","",""
"1010","
  <p style=""font-size: 40px;"">bitter</p>
  <p style=""font-size: 16px;"">J = YES &nbsp;&nbsp;&nbsp; F = NO</p>
","j","html-keyboard-response","34","2.1.0","72094","J=YES, F=NO","tk13x4ox1y","1","69","63","75","","","","","","lextale","true","false","","","","","","","",""
"943","
  <p style=""font-size: 40px;"">pliff</p>
  <p style=""font-size: 16px;"">J = YES &nbsp;&nbsp;&nbsp; F = NO</p>
","f","html-keyboard-response","35","2.1.0","73038","J=YES, F=NO","tk13x4ox1y","1","69","63","75","","","","","","lextale","false","false","","","","","","","",""
"680","
  <p style=""font-size: 40px;"">tablet</p>
  <p style=""font-size: 16px;"">J = YES &nbsp;&nbsp;&nbsp; F = NO</p>
","j","html-keyboard-response","36","2.1.0","73718","J=YES, F=NO","tk13x4ox1y","1","69","63","75","","","","","","lextale","true","false","","","","","","","",""
"923","
  <p style=""font-size: 40px;"">glimmer</p>
  <p style=""font-size: 16px;"">J = YES &nbsp;&nbsp;&nbsp; F = NO</p>
","j","html-keyboard-response","37","2.1.0","74642","J=YES, F=NO","tk13x4ox1y","1","69","63","75","","","","","","lextale","true","false","","","","","","","",""
"2809","
  <p style=""font-size: 40px;"">slink</p>
  <p style=""font-size: 16px;"">J = YES &nbsp;&nbsp;&nbsp; F = NO</p>
","f","html-keyboard-response","38","2.1.0","77452","J=YES, F=NO","tk13x4ox1y","1","69","63","75","","","","","","lextale","true","false","","","","","","","",""
"2581","
  <p style=""font-size: 40px;"">clever</p>
  <p style=""font-size: 16px;"">J = YES &nbsp;&nbsp;&nbsp; F = NO</p>
","j","html-keyboard-response","39","2.1.0","80033","J=YES, F=NO","tk13x4ox1y","1","69","63","75","","","","","","lextale","true","false","","","","","","","",""
"1247","
  <p style=""font-size: 40px;"">grum</p>
  <p style=""font-size: 16px;"">J = YES &nbsp;&nbsp;&nbsp; F = NO</p>
","f","html-keyboard-response","40","2.1.0","81281","J=YES, F=NO","tk13x4ox1y","1","69","63","75","","","","","","lextale","false","false","","","","","","","",""
"538","
  <p style=""font-size: 40px;"">string</p>
  <p style=""font-size: 16px;"">J = YES &nbsp;&nbsp;&nbsp; F = NO</p>
","j","html-keyboard-response","41","2.1.0","81819","J=YES, F=NO","tk13x4ox1y","1","69","63","75","","","","","","lextale","true","false","","","","","","","",""
"2412","
  <p style=""font-size: 40px;"">plim</p>
  <p style=""font-size: 16px;"">J = YES &nbsp;&nbsp;&nbsp; F = NO</p>
","f","html-keyboard-response","42","2.1.0","84232","J=YES, F=NO","tk13x4ox1y","1","69","63","75","","","","","","lextale","false","false","","","","","","","",""
"579","
  <p style=""font-size: 40px;"">cable</p>
  <p style=""font-size: 16px;"">J = YES &nbsp;&nbsp;&nbsp; F = NO</p>
","j","html-keyboard-response","43","2.1.0","84812","J=YES, F=NO","tk13x4ox1y","1","69","63","75","","","","","","lextale","true","false","","","","","","","",""
"1097","
  <p style=""font-size: 40px;"">shrivel</p>
  <p style=""font-size: 16px;"">J = YES &nbsp;&nbsp;&nbsp; F = NO</p>
","f","html-keyboard-response","44","2.1.0","85910","J=YES, F=NO","tk13x4ox1y","1","69","63","75","","","","","","lextale","true","false","","","","","","","",""
"2736","
  <p style=""font-size: 40px;"">tarnish</p>
  <p style=""font-size: 16px;"">J = YES &nbsp;&nbsp;&nbsp; F = NO</p>
","f","html-keyboard-response","45","2.1.0","88646","J=YES, F=NO","tk13x4ox1y","1","69","63","75","","","","","","lextale","true","false","","","","","","","",""
"997","
  <p style=""font-size: 40px;"">blim</p>
  <p style=""font-size: 16px;"">J = YES &nbsp;&nbsp;&nbsp; F = NO</p>
","f","html-keyboard-response","46","2.1.0","89644","J=YES, F=NO","tk13x4ox1y","1","69","63","75","","","","","","lextale","false","false","","","","","","","",""
"1381","
  <p style=""font-size: 40px;"">stifle</p>
  <p style=""font-size: 16px;"">J = YES &nbsp;&nbsp;&nbsp; F = NO</p>
","f","html-keyboard-response","47","2.1.0","91025","J=YES, F=NO","tk13x4ox1y","1","69","63","75","","","","","","lextale","true","false","","","","","","","",""
"943","
  <p style=""font-size: 40px;"">bint</p>
  <p style=""font-size: 16px;"">J = YES &nbsp;&nbsp;&nbsp; F = NO</p>
","f","html-keyboard-response","48","2.1.0","91969","J=YES, F=NO","tk13x4ox1y","1","69","63","75","","","","","","lextale","false","false","","","","","","","",""
"654","
  <p style=""font-size: 40px;"">purple</p>
  <p style=""font-size: 16px;"">J = YES &nbsp;&nbsp;&nbsp; F = NO</p>
","j","html-keyboard-response","49","2.1.0","92624","J=YES, F=NO","tk13x4ox1y","1","69","63","75","","","","","","lextale","true","false","","","","","","","",""
"2141","
  <p style=""font-size: 40px;"">wriggle</p>
  <p style=""font-size: 16px;"">J = YES &nbsp;&nbsp;&nbsp; F = NO</p>
","j","html-keyboard-response","50","2.1.0","94766","J=YES, F=NO","tk13x4ox1y","1","69","63","75","","","","","","lextale","true","false","","","","","","","",""
"767","
  <p style=""font-size: 40px;"">mangle</p>
  <p style=""font-size: 16px;"">J = YES &nbsp;&nbsp;&nbsp; F = NO</p>
","j","html-keyboard-response","51","2.1.0","95534","J=YES, F=NO","tk13x4ox1y","1","69","63","75","","","","","","lextale","true","false","","","","","","","",""
"1274","
  <p style=""font-size: 40px;"">shramp</p>
  <p style=""font-size: 16px;"">J = YES &nbsp;&nbsp;&nbsp; F = NO</p>
","f","html-keyboard-response","52","2.1.0","96809","J=YES, F=NO","tk13x4ox1y","1","69","63","75","","","","","","lextale","false","false","","","","","","","",""
"652","
  <p style=""font-size: 40px;"">flirt</p>
  <p style=""font-size: 16px;"">J = YES &nbsp;&nbsp;&nbsp; F = NO</p>
","j","html-keyboard-response","53","2.1.0","97461","J=YES, F=NO","tk13x4ox1y","1","69","63","75","","","","","","lextale","true","false","","","","","","","",""
"1072","
  <p style=""font-size: 40px;"">frip</p>
  <p style=""font-size: 16px;"">J = YES &nbsp;&nbsp;&nbsp; F = NO</p>
","j","html-keyboard-response","54","2.1.0","98533","J=YES, F=NO","tk13x4ox1y","1","69","63","75","","","","","","lextale","false","false","","","","","","","",""
"977","
  <p style=""font-size: 40px;"">tangle</p>
  <p style=""font-size: 16px;"">J = YES &nbsp;&nbsp;&nbsp; F = NO</p>
","j","html-keyboard-response","55","2.1.0","99511","J=YES, F=NO","tk13x4ox1y","1","69","63","75","","","","","","lextale","true","false","","","","","","","",""
"1219","
  <p style=""font-size: 40px;"">crumble</p>
  <p style=""font-size: 16px;"">J = YES &nbsp;&nbsp;&nbsp; F = NO</p>
","j","html-keyboard-response","56","2.1.0","100730","J=YES, F=NO","tk13x4ox1y","1","69","63","75","","","","","","lextale","true","false","","","","","","","",""
"1928","
  <p style=""font-size: 40px;"">wrinkle</p>
  <p style=""font-size: 16px;"">J = YES &nbsp;&nbsp;&nbsp; F = NO</p>
","f","html-keyboard-response","57","2.1.0","102659","J=YES, F=NO","tk13x4ox1y","1","69","63","75","","","","","","lextale","true","false","","","","","","","",""
"807","
  <p style=""font-size: 40px;"">slumb</p>
  <p style=""font-size: 16px;"">J = YES &nbsp;&nbsp;&nbsp; F = NO</p>
","f","html-keyboard-response","58","2.1.0","103466","J=YES, F=NO","tk13x4ox1y","1","69","63","75","","","","","","lextale","false","false","","","","","","","",""
"633","
  <p style=""font-size: 40px;"">jungle</p>
  <p style=""font-size: 16px;"">J = YES &nbsp;&nbsp;&nbsp; F = NO</p>
","j","html-keyboard-response","59","2.1.0","104100","J=YES, F=NO","tk13x4ox1y","1","69","63","75","","","","","","lextale","true","false","","","","","","","",""
"2324","
  <p style=""font-size: 40px;"">frolick</p>
  <p style=""font-size: 16px;"">J = YES &nbsp;&nbsp;&nbsp; F = NO</p>
","f","html-keyboard-response","60","2.1.0","106425","J=YES, F=NO","tk13x4ox1y","1","69","63","75","","","","","","lextale","false","false","","","","","","","",""
"4022","
      <h2>LexTALE Test Completed</h2>
      <p>Your LexTALE vocabulary score is: <strong>69%</strong></p>
      <p>Press any key to continue.</p>
    ","j","html-keyboard-response","61","2.1.0","110448","J=YES, F=NO","tk13x4ox1y","1","69","63","75","","","","","","","","","","","","","","","",""
"41803","
    <div style=""max-width: 800px; margin: auto; text-align: left;"">
      <h2>Break Time</h2>
      <p>You have completed the first part of the study.</p>
      <p>You may take a short <strong>30-second break</strong> before continuing.</p>
      <p>When you’re ready, press any key to continue to the final task.</p>
    </div>
  ","j","html-keyboard-response","62","2.1.0","152252","J=YES, F=NO","tk13x4ox1y","1","69","63","75","","","","","","","","","","","","","","","",""
"38288","
    <div style=""max-width: 800px; margin: auto; text-align: left;"">
      <h2>Part 2: Lexical Decision Task</h2>
      <p>You will now begin the second part of the study.</p>
      <p>Each trial will follow this sequence:</p>
      <ul>
        <li>A fixation cross (+) appears at the center of the screen.</li>
        <li>You will hear a short beep followed by a spoken word.</li>
        <li>A written word will appear briefly on the screen.</li>
      </ul>
      <p>Your task is to judge whether the <strong>written word</strong> is a real English word.</p>
      <p style=""margin-top: 1em;""><strong>Key responses:</strong></p>
      <ul>
        <li><strong>J</strong> = YES (real English word)</li>
        <li><strong>F</strong> = NO (not a real English word)</li>
      </ul>
      <p>Please respond as quickly and accurately as you can.</p>
      <p style=""margin-top: 2em;"">Press any key to continue.</p>
    </div>
  ","j","html-keyboard-response","63","2.1.0","190541","J=YES, F=NO","tk13x4ox1y","1","69","63","75","","","","","","","","","","","","","","","",""
"10753","
    <div style=""max-width: 800px; margin: auto; text-align: left;"">
      <h2>Before You Begin</h2>
      <p>Make sure your sound is turned on.</p>
      <p>You will hear audio during each trial, but your decision should be based only on the <strong>written word</strong> you see on the screen.</p>
      <p><strong>Reminder:</strong></p>
      <ul>
        <li><strong>J</strong> = YES (real English word)</li>
        <li><strong>F</strong> = NO (not a real English word)</li>
      </ul>
      <p style=""margin-top: 2em;"">Press any key when you are ready to begin.</p>
    </div>
  ","j","html-keyboard-response","64","2.1.0","201295","J=YES, F=NO","tk13x4ox1y","1","69","63","75","","","","","","","","","","","","","","","",""
"4386","
    <div style=""max-width: 800px; margin: auto; text-align: left;"">
      <h2>Part 2: Practice Trials</h2>
      <p>You will now complete a few <strong>practice trials</strong> to get familiar with the task.</p>
      <p>These trials are <strong>not scored</strong> and are only to help you get used to the format.</p>
      <p style=""margin-top: 2em;"">Press any key to begin.</p>
    </div>
  ","j","html-keyboard-response","65","2.1.0","205682","J=YES, F=NO","tk13x4ox1y","1","69","63","75","","","","","","","","","","","","","","","",""
"3570","<p>Starting practice block 1 of 2. Press any key to continue.</p>","j","html-keyboard-response","66","2.1.0","209252","J=YES, F=NO","tk13x4ox1y","1","69","63","75","","","","","","","","","","","","","","","",""
"null","<p style=""font-size: 50px;"">+</p>","null","html-keyboard-response","67","2.1.0","209562","J=YES, F=NO","tk13x4ox1y","1","69","63","75","","","","","","","","","","","","","","","",""
"null","audio/beep-329314.mp3","null","audio-keyboard-response","68","2.1.0","211130","J=YES, F=NO","tk13x4ox1y","1","69","63","75","","","","","","","","","","","","","","","",""
"null","audio/floor.wav","null","audio-keyboard-response","69","2.1.0","211730","J=YES, F=NO","tk13x4ox1y","1","69","63","75","","","","","","","","","","","","","","","",""
"null","
          <p id=""word"" style=""font-size: 40px;"">mop</p>
          <p style=""font-size: 16px;"">J = YES &nbsp;&nbsp;&nbsp; F = NO</p>
        ","null","html-keyboard-response","70","2.1.0","213233","J=YES, F=NO","tk13x4ox1y","1","69","63","75","","","","","","","","","mop","floor","filler","filler","j","false","",""
"null","<p style=""font-size: 50px;"">+</p>","null","html-keyboard-response","71","2.1.0","213544","J=YES, F=NO","tk13x4ox1y","1","69","63","75","","","","","","","","","","","","","","","",""
"null","audio/beep-329314.mp3","null","audio-keyboard-response","72","2.1.0","215070","J=YES, F=NO","tk13x4ox1y","1","69","63","75","","","","","","","","","","","","","","","",""
"null","audio/tomato.wav","null","audio-keyboard-response","73","2.1.0","215750","J=YES, F=NO","tk13x4ox1y","1","69","63","75","","","","","","","","","","","","","","","",""
"719","
          <p id=""word"" style=""font-size: 40px;"">gladies</p>
          <p style=""font-size: 16px;"">J = YES &nbsp;&nbsp;&nbsp; F = NO</p>
        ","j","html-keyboard-response","74","2.1.0","216470","J=YES, F=NO","tk13x4ox1y","1","69","63","75","","","","","","","","","gladies","tomato","pseudoword","pseudoword","f","false","",""
"null","<p style=""font-size: 50px;"">+</p>","null","html-keyboard-response","75","2.1.0","216778","J=YES, F=NO","tk13x4ox1y","1","69","63","75","","","","","","","","","","","","","","","",""
"null","audio/beep-329314.mp3","null","audio-keyboard-response","76","2.1.0","218310","J=YES, F=NO","tk13x4ox1y","1","69","63","75","","","","","","","","","","","","","","","",""
"null","audio/bridge.wav","null","audio-keyboard-response","77","2.1.0","219010","J=YES, F=NO","tk13x4ox1y","1","69","63","75","","","","","","","","","","","","","","","",""
"989","
          <p id=""word"" style=""font-size: 40px;"">crack</p>
          <p style=""font-size: 16px;"">J = YES &nbsp;&nbsp;&nbsp; F = NO</p>
        ","j","html-keyboard-response","78","2.1.0","220000","J=YES, F=NO","tk13x4ox1y","1","69","63","75","","","","","","","","","crack","bridge","filler","filler","j","true","",""
"null","<p style=""font-size: 50px;"">+</p>","null","html-keyboard-response","79","2.1.0","220311","J=YES, F=NO","tk13x4ox1y","1","69","63","75","","","","","","","","","","","","","","","",""
"null","audio/beep-329314.mp3","null","audio-keyboard-response","80","2.1.0","221850","J=YES, F=NO","tk13x4ox1y","1","69","63","75","","","","","","","","","","","","","","","",""
"null","audio/battle1.wav","null","audio-keyboard-response","81","2.1.0","222370","J=YES, F=NO","tk13x4ox1y","1","69","63","75","","","","","","","","","","","","","","","",""
"803","
          <p id=""word"" style=""font-size: 40px;"">boil</p>
          <p style=""font-size: 16px;"">J = YES &nbsp;&nbsp;&nbsp; F = NO</p>
        ","j","html-keyboard-response","82","2.1.0","223174","J=YES, F=NO","tk13x4ox1y","1","69","63","75","","","","","","","","","boil","battle1","filler","filler","j","true","",""
"null","<p style=""font-size: 50px;"">+</p>","null","html-keyboard-response","83","2.1.0","223479","J=YES, F=NO","tk13x4ox1y","1","69","63","75","","","","","","","","","","","","","","","",""
"null","audio/beep-329314.mp3","null","audio-keyboard-response","84","2.1.0","225010","J=YES, F=NO","tk13x4ox1y","1","69","63","75","","","","","","","","","","","","","","","",""
"null","audio/noise1.wav","null","audio-keyboard-response","85","2.1.0","225630","J=YES, F=NO","tk13x4ox1y","1","69","63","75","","","","","","","","","","","","","","","",""
"878","
          <p id=""word"" style=""font-size: 40px;"">slintered</p>
          <p style=""font-size: 16px;"">J = YES &nbsp;&nbsp;&nbsp; F = NO</p>
        ","f","html-keyboard-response","86","2.1.0","226509","J=YES, F=NO","tk13x4ox1y","1","69","63","75","","","","","","","","","slintered","noise1","pseudoword","pseudoword","f","true","",""
"null","<p style=""font-size: 50px;"">+</p>","null","html-keyboard-response","87","2.1.0","226816","J=YES, F=NO","tk13x4ox1y","1","69","63","75","","","","","","","","","","","","","","","",""
"null","audio/beep-329314.mp3","null","audio-keyboard-response","88","2.1.0","228350","J=YES, F=NO","tk13x4ox1y","1","69","63","75","","","","","","","","","","","","","","","",""
"null","audio/mind.wav","null","audio-keyboard-response","89","2.1.0","229070","J=YES, F=NO","tk13x4ox1y","1","69","63","75","","","","","","","","","","","","","","","",""
"1036","
          <p id=""word"" style=""font-size: 40px;"">crainate</p>
          <p style=""font-size: 16px;"">J = YES &nbsp;&nbsp;&nbsp; F = NO</p>
        ","f","html-keyboard-response","90","2.1.0","230106","J=YES, F=NO","tk13x4ox1y","1","69","63","75","","","","","","","","","crainate","mind","pseudoword","pseudoword","f","true","",""
"null","<p style=""font-size: 50px;"">+</p>","null","html-keyboard-response","91","2.1.0","230414","J=YES, F=NO","tk13x4ox1y","1","69","63","75","","","","","","","","","","","","","","","",""
"null","audio/beep-329314.mp3","null","audio-keyboard-response","92","2.1.0","231950","J=YES, F=NO","tk13x4ox1y","1","69","63","75","","","","","","","","","","","","","","","",""
"null","audio/meal.wav","null","audio-keyboard-response","93","2.1.0","232450","J=YES, F=NO","tk13x4ox1y","1","69","63","75","","","","","","","","","","","","","","","",""
"1059","
          <p id=""word"" style=""font-size: 40px;"">gallite</p>
          <p style=""font-size: 16px;"">J = YES &nbsp;&nbsp;&nbsp; F = NO</p>
        ","f","html-keyboard-response","94","2.1.0","233509","J=YES, F=NO","tk13x4ox1y","1","69","63","75","","","","","","","","","gallite","meal","pseudoword","pseudoword","f","true","",""
"null","<p style=""font-size: 50px;"">+</p>","null","html-keyboard-response","95","2.1.0","233822","J=YES, F=NO","tk13x4ox1y","1","69","63","75","","","","","","","","","","","","","","","",""
"null","audio/beep-329314.mp3","null","audio-keyboard-response","96","2.1.0","235350","J=YES, F=NO","tk13x4ox1y","1","69","63","75","","","","","","","","","","","","","","","",""
"null","audio/cash1.wav","null","audio-keyboard-response","97","2.1.0","235950","J=YES, F=NO","tk13x4ox1y","1","69","63","75","","","","","","","","","","","","","","","",""
"732","
          <p id=""word"" style=""font-size: 40px;"">splear</p>
          <p style=""font-size: 16px;"">J = YES &nbsp;&nbsp;&nbsp; F = NO</p>
        ","j","html-keyboard-response","98","2.1.0","236683","J=YES, F=NO","tk13x4ox1y","1","69","63","75","","","","","","","","","splear","cash1","pseudoword","pseudoword","f","false","",""
"null","<p style=""font-size: 50px;"">+</p>","null","html-keyboard-response","99","2.1.0","236992","J=YES, F=NO","tk13x4ox1y","1","69","63","75","","","","","","","","","","","","","","","",""
"null","audio/beep-329314.mp3","null","audio-keyboard-response","100","2.1.0","238530","J=YES, F=NO","tk13x4ox1y","1","69","63","75","","","","","","","","","","","","","","","",""
"null","audio/account1.wav","null","audio-keyboard-response","101","2.1.0","239370","J=YES, F=NO","tk13x4ox1y","1","69","63","75","","","","","","","","","","","","","","","",""
"613","
          <p id=""word"" style=""font-size: 40px;"">paint</p>
          <p style=""font-size: 16px;"">J = YES &nbsp;&nbsp;&nbsp; F = NO</p>
        ","j","html-keyboard-response","102","2.1.0","239985","J=YES, F=NO","tk13x4ox1y","1","69","63","75","","","","","","","","","paint","account1","filler","filler","j","true","",""
"null","<p style=""font-size: 50px;"">+</p>","null","html-keyboard-response","103","2.1.0","240288","J=YES, F=NO","tk13x4ox1y","1","69","63","75","","","","","","","","","","","","","","","",""
"null","audio/beep-329314.mp3","null","audio-keyboard-response","104","2.1.0","241810","J=YES, F=NO","tk13x4ox1y","1","69","63","75","","","","","","","","","","","","","","","",""
"null","audio/belief.wav","null","audio-keyboard-response","105","2.1.0","242590","J=YES, F=NO","tk13x4ox1y","1","69","63","75","","","","","","","","","","","","","","","",""
"608","
          <p id=""word"" style=""font-size: 40px;"">read</p>
          <p style=""font-size: 16px;"">J = YES &nbsp;&nbsp;&nbsp; F = NO</p>
        ","j","html-keyboard-response","106","2.1.0","243198","J=YES, F=NO","tk13x4ox1y","1","69","63","75","","","","","","","","","read","belief","filler","filler","j","true","",""
"null","<p style=""font-size: 50px;"">+</p>","null","html-keyboard-response","107","2.1.0","243507","J=YES, F=NO","tk13x4ox1y","1","69","63","75","","","","","","","","","","","","","","","",""
"null","audio/beep-329314.mp3","null","audio-keyboard-response","108","2.1.0","245030","J=YES, F=NO","tk13x4ox1y","1","69","63","75","","","","","","","","","","","","","","","",""
"null","audio/brain.wav","null","audio-keyboard-response","109","2.1.0","245530","J=YES, F=NO","tk13x4ox1y","1","69","63","75","","","","","","","","","","","","","","","",""
"700","
          <p id=""word"" style=""font-size: 40px;"">throw</p>
          <p style=""font-size: 16px;"">J = YES &nbsp;&nbsp;&nbsp; F = NO</p>
        ","j","html-keyboard-response","110","2.1.0","246231","J=YES, F=NO","tk13x4ox1y","1","69","63","75","","","","","","","","","throw","brain","filler","filler","j","true","",""
"null","<p style=""font-size: 50px;"">+</p>","null","html-keyboard-response","111","2.1.0","246545","J=YES, F=NO","tk13x4ox1y","1","69","63","75","","","","","","","","","","","","","","","",""
"null","audio/beep-329314.mp3","null","audio-keyboard-response","112","2.1.0","248070","J=YES, F=NO","tk13x4ox1y","1","69","63","75","","","","","","","","","","","","","","","",""
"null","audio/golf1.wav","null","audio-keyboard-response","113","2.1.0","248650","J=YES, F=NO","tk13x4ox1y","1","69","63","75","","","","","","","","","","","","","","","",""
"727","
          <p id=""word"" style=""font-size: 40px;"">drabble</p>
          <p style=""font-size: 16px;"">J = YES &nbsp;&nbsp;&nbsp; F = NO</p>
        ","f","html-keyboard-response","114","2.1.0","249378","J=YES, F=NO","tk13x4ox1y","1","69","63","75","","","","","","","","","drabble","golf1","pseudoword","pseudoword","f","true","",""
"2344","<p>Starting practice block 2 of 2. Press any key to continue.</p>","j","html-keyboard-response","115","2.1.0","251723","J=YES, F=NO","tk13x4ox1y","1","69","63","75","","","","","","","","","","","","","","","",""
"null","<p style=""font-size: 50px;"">+</p>","null","html-keyboard-response","116","2.1.0","252034","J=YES, F=NO","tk13x4ox1y","1","69","63","75","","","","","","","","","","","","","","","",""
"null","audio/beep-329314.mp3","null","audio-keyboard-response","117","2.1.0","253570","J=YES, F=NO","tk13x4ox1y","1","69","63","75","","","","","","","","","","","","","","","",""
"null","audio/arm.wav","null","audio-keyboard-response","118","2.1.0","254130","J=YES, F=NO","tk13x4ox1y","1","69","63","75","","","","","","","","","","","","","","","",""
"1136","
          <p id=""word"" style=""font-size: 40px;"">pigne</p>
          <p style=""font-size: 16px;"">J = YES &nbsp;&nbsp;&nbsp; F = NO</p>
        ","f","html-keyboard-response","119","2.1.0","255267","J=YES, F=NO","tk13x4ox1y","1","69","63","75","","","","","","","","","pigne","arm","pseudoword","pseudoword","f","true","",""
"null","<p style=""font-size: 50px;"">+</p>","null","html-keyboard-response","120","2.1.0","255571","J=YES, F=NO","tk13x4ox1y","1","69","63","75","","","","","","","","","","","","","","","",""
"null","audio/beep-329314.mp3","null","audio-keyboard-response","121","2.1.0","257113","J=YES, F=NO","tk13x4ox1y","1","69","63","75","","","","","","","","","","","","","","","",""
"null","audio/bishop1.wav","null","audio-keyboard-response","122","2.1.0","257750","J=YES, F=NO","tk13x4ox1y","1","69","63","75","","","","","","","","","","","","","","","",""
"642","
          <p id=""word"" style=""font-size: 40px;"">play</p>
          <p style=""font-size: 16px;"">J = YES &nbsp;&nbsp;&nbsp; F = NO</p>
        ","j","html-keyboard-response","123","2.1.0","258392","J=YES, F=NO","tk13x4ox1y","1","69","63","75","","","","","","","","","play","bishop1","filler","filler","j","true","",""
"null","<p style=""font-size: 50px;"">+</p>","null","html-keyboard-response","124","2.1.0","258698","J=YES, F=NO","tk13x4ox1y","1","69","63","75","","","","","","","","","","","","","","","",""
"null","audio/beep-329314.mp3","null","audio-keyboard-response","125","2.1.0","260230","J=YES, F=NO","tk13x4ox1y","1","69","63","75","","","","","","","","","","","","","","","",""
"null","audio/butter1.wav","null","audio-keyboard-response","126","2.1.0","260830","J=YES, F=NO","tk13x4ox1y","1","69","63","75","","","","","","","","","","","","","","","",""
"937","
          <p id=""word"" style=""font-size: 40px;"">chew</p>
          <p style=""font-size: 16px;"">J = YES &nbsp;&nbsp;&nbsp; F = NO</p>
        ","j","html-keyboard-response","127","2.1.0","261768","J=YES, F=NO","tk13x4ox1y","1","69","63","75","","","","","","","","","chew","butter1","filler","filler","j","true","",""
"null","<p style=""font-size: 50px;"">+</p>","null","html-keyboard-response","128","2.1.0","262077","J=YES, F=NO","tk13x4ox1y","1","69","63","75","","","","","","","","","","","","","","","",""
"null","audio/beep-329314.mp3","null","audio-keyboard-response","129","2.1.0","263610","J=YES, F=NO","tk13x4ox1y","1","69","63","75","","","","","","","","","","","","","","","",""
"null","audio/alarm1.wav","null","audio-keyboard-response","130","2.1.0","264210","J=YES, F=NO","tk13x4ox1y","1","69","63","75","","","","","","","","","","","","","","","",""
"595","
          <p id=""word"" style=""font-size: 40px;"">lock</p>
          <p style=""font-size: 16px;"">J = YES &nbsp;&nbsp;&nbsp; F = NO</p>
        ","j","html-keyboard-response","131","2.1.0","264807","J=YES, F=NO","tk13x4ox1y","1","69","63","75","","","","","","","","","lock","alarm1","filler","filler","j","true","",""
"null","<p style=""font-size: 50px;"">+</p>","null","html-keyboard-response","132","2.1.0","265114","J=YES, F=NO","tk13x4ox1y","1","69","63","75","","","","","","","","","","","","","","","",""
"null","audio/beep-329314.mp3","null","audio-keyboard-response","133","2.1.0","266650","J=YES, F=NO","tk13x4ox1y","1","69","63","75","","","","","","","","","","","","","","","",""
"null","audio/cancer1.wav","null","audio-keyboard-response","134","2.1.0","267210","J=YES, F=NO","tk13x4ox1y","1","69","63","75","","","","","","","","","","","","","","","",""
"1092","
          <p id=""word"" style=""font-size: 40px;"">draw</p>
          <p style=""font-size: 16px;"">J = YES &nbsp;&nbsp;&nbsp; F = NO</p>
        ","j","html-keyboard-response","135","2.1.0","268304","J=YES, F=NO","tk13x4ox1y","1","69","63","75","","","","","","","","","draw","cancer1","filler","filler","j","true","",""
"null","<p style=""font-size: 50px;"">+</p>","null","html-keyboard-response","136","2.1.0","268608","J=YES, F=NO","tk13x4ox1y","1","69","63","75","","","","","","","","","","","","","","","",""
"null","audio/beep-329314.mp3","null","audio-keyboard-response","137","2.1.0","270130","J=YES, F=NO","tk13x4ox1y","1","69","63","75","","","","","","","","","","","","","","","",""
"null","audio/effort.wav","null","audio-keyboard-response","138","2.1.0","270730","J=YES, F=NO","tk13x4ox1y","1","69","63","75","","","","","","","","","","","","","","","",""
"800","
          <p id=""word"" style=""font-size: 40px;"">whonk</p>
          <p style=""font-size: 16px;"">J = YES &nbsp;&nbsp;&nbsp; F = NO</p>
        ","f","html-keyboard-response","139","2.1.0","271531","J=YES, F=NO","tk13x4ox1y","1","69","63","75","","","","","","","","","whonk","effort","pseudoword","pseudoword","f","true","",""
"null","<p style=""font-size: 50px;"">+</p>","null","html-keyboard-response","140","2.1.0","271843","J=YES, F=NO","tk13x4ox1y","1","69","63","75","","","","","","","","","","","","","","","",""
"null","audio/beep-329314.mp3","null","audio-keyboard-response","141","2.1.0","273370","J=YES, F=NO","tk13x4ox1y","1","69","63","75","","","","","","","","","","","","","","","",""
"null","audio/budget1.wav","null","audio-keyboard-response","142","2.1.0","274030","J=YES, F=NO","tk13x4ox1y","1","69","63","75","","","","","","","","","","","","","","","",""
"856","
          <p id=""word"" style=""font-size: 40px;"">sulist</p>
          <p style=""font-size: 16px;"">J = YES &nbsp;&nbsp;&nbsp; F = NO</p>
        ","f","html-keyboard-response","143","2.1.0","274887","J=YES, F=NO","tk13x4ox1y","1","69","63","75","","","","","","","","","sulist","budget1","pseudoword","pseudoword","f","true","",""
"null","<p style=""font-size: 50px;"">+</p>","null","html-keyboard-response","144","2.1.0","275196","J=YES, F=NO","tk13x4ox1y","1","69","63","75","","","","","","","","","","","","","","","",""
"null","audio/beep-329314.mp3","null","audio-keyboard-response","145","2.1.0","276730","J=YES, F=NO","tk13x4ox1y","1","69","63","75","","","","","","","","","","","","","","","",""
"null","audio/novel.wav","null","audio-keyboard-response","146","2.1.0","277370","J=YES, F=NO","tk13x4ox1y","1","69","63","75","","","","","","","","","","","","","","","",""
"581","
          <p id=""word"" style=""font-size: 40px;"">type</p>
          <p style=""font-size: 16px;"">J = YES &nbsp;&nbsp;&nbsp; F = NO</p>
        ","j","html-keyboard-response","147","2.1.0","277952","J=YES, F=NO","tk13x4ox1y","1","69","63","75","","","","","","","","","type","novel","filler","filler","j","true","",""
"null","<p style=""font-size: 50px;"">+</p>","null","html-keyboard-response","148","2.1.0","278263","J=YES, F=NO","tk13x4ox1y","1","69","63","75","","","","","","","","","","","","","","","",""
"null","audio/beep-329314.mp3","null","audio-keyboard-response","149","2.1.0","279790","J=YES, F=NO","tk13x4ox1y","1","69","63","75","","","","","","","","","","","","","","","",""
"null","audio/survey1.wav","null","audio-keyboard-response","150","2.1.0","280570","J=YES, F=NO","tk13x4ox1y","1","69","63","75","","","","","","","","","","","","","","","",""
"1026","
          <p id=""word"" style=""font-size: 40px;"">imploth</p>
          <p style=""font-size: 16px;"">J = YES &nbsp;&nbsp;&nbsp; F = NO</p>
        ","f","html-keyboard-response","151","2.1.0","281597","J=YES, F=NO","tk13x4ox1y","1","69","63","75","","","","","","","","","imploth","survey1","pseudoword","pseudoword","f","true","",""
"null","<p style=""font-size: 50px;"">+</p>","null","html-keyboard-response","152","2.1.0","281900","J=YES, F=NO","tk13x4ox1y","1","69","63","75","","","","","","","","","","","","","","","",""
"null","audio/beep-329314.mp3","null","audio-keyboard-response","153","2.1.0","283430","J=YES, F=NO","tk13x4ox1y","1","69","63","75","","","","","","","","","","","","","","","",""
"null","audio/heart1.wav","null","audio-keyboard-response","154","2.1.0","284110","J=YES, F=NO","tk13x4ox1y","1","69","63","75","","","","","","","","","","","","","","","",""
"795","
          <p id=""word"" style=""font-size: 40px;"">dralm</p>
          <p style=""font-size: 16px;"">J = YES &nbsp;&nbsp;&nbsp; F = NO</p>
        ","f","html-keyboard-response","155","2.1.0","284906","J=YES, F=NO","tk13x4ox1y","1","69","63","75","","","","","","","","","dralm","heart1","pseudoword","pseudoword","f","true","",""
"null","<p style=""font-size: 50px;"">+</p>","null","html-keyboard-response","156","2.1.0","285212","J=YES, F=NO","tk13x4ox1y","1","69","63","75","","","","","","","","","","","","","","","",""
"null","audio/beep-329314.mp3","null","audio-keyboard-response","157","2.1.0","286750","J=YES, F=NO","tk13x4ox1y","1","69","63","75","","","","","","","","","","","","","","","",""
"null","audio/relief.wav","null","audio-keyboard-response","158","2.1.0","287550","J=YES, F=NO","tk13x4ox1y","1","69","63","75","","","","","","","","","","","","","","","",""
"757","
          <p id=""word"" style=""font-size: 40px;"">grigg</p>
          <p style=""font-size: 16px;"">J = YES &nbsp;&nbsp;&nbsp; F = NO</p>
        ","f","html-keyboard-response","159","2.1.0","288308","J=YES, F=NO","tk13x4ox1y","1","69","63","75","","","","","","","","","grigg","relief","pseudoword","pseudoword","f","true","",""
"null","<p style=""font-size: 50px;"">+</p>","null","html-keyboard-response","160","2.1.0","288610","J=YES, F=NO","tk13x4ox1y","1","69","63","75","","","","","","","","","","","","","","","",""
"null","audio/beep-329314.mp3","null","audio-keyboard-response","161","2.1.0","290150","J=YES, F=NO","tk13x4ox1y","1","69","63","75","","","","","","","","","","","","","","","",""
"null","audio/terrain.wav","null","audio-keyboard-response","162","2.1.0","290750","J=YES, F=NO","tk13x4ox1y","1","69","63","75","","","","","","","","","","","","","","","",""
"893","
          <p id=""word"" style=""font-size: 40px;"">twist</p>
          <p style=""font-size: 16px;"">J = YES &nbsp;&nbsp;&nbsp; F = NO</p>
        ","j","html-keyboard-response","163","2.1.0","291644","J=YES, F=NO","tk13x4ox1y","1","69","63","75","","","","","","","","","twist","terrain","filler","filler","j","true","",""
"7048","
    <div style=""max-width: 800px; margin: auto; text-align: left;"">
      <h2>Part 2: Main Trials</h2>
      <p>Great job on the practice trials!</p>
      <p>You will now begin the <strong>main set of trials</strong>.</p>
      <p>Remember your key assignments:</p>
      <ul>
        <li><strong>J</strong> = YES (real English word)</li>
        <li><strong>F</strong> = NO (not a real English word)</li>
      </ul>
      <p>Try to respond as <strong>quickly and accurately</strong> as possible.</p>
      <p style=""margin-top: 2em;"">Press any key to begin the main trials.</p>
    </div>
  ","j","html-keyboard-response","164","2.1.0","298693","J=YES, F=NO","tk13x4ox1y","1","69","63","75","","","","","","","","","","","","","","","",""
"1797","<p>Starting main block 1 of 8. Press any key to continue.</p>","j","html-keyboard-response","165","2.1.0","300491","J=YES, F=NO","tk13x4ox1y","1","69","63","75","","","","","","","","","","","","","","","",""
"null","<p style=""font-size: 50px;"">+</p>","null","html-keyboard-response","166","2.1.0","300802","J=YES, F=NO","tk13x4ox1y","1","69","63","75","","","","","","","","","","","","","","","",""
"null","audio/beep-329314.mp3","null","audio-keyboard-response","167","2.1.0","302310","J=YES, F=NO","tk13x4ox1y","1","69","63","75","","","","","","","","","","","","","","","",""
"null","audio/truth1.wav","null","audio-keyboard-response","168","2.1.0","302850","J=YES, F=NO","tk13x4ox1y","1","69","63","75","","","","","","","","","","","","","","","",""
"1042","
          <p id=""word"" style=""font-size: 40px;"">calitom</p>
          <p style=""font-size: 16px;"">J = YES &nbsp;&nbsp;&nbsp; F = NO</p>
        ","f","html-keyboard-response","169","2.1.0","303893","J=YES, F=NO","tk13x4ox1y","1","69","63","75","","","","","","","","","calitom","truth1","pseudoword","pseudoword","f","true","",""
"null","<p style=""font-size: 50px;"">+</p>","null","html-keyboard-response","170","2.1.0","304197","J=YES, F=NO","tk13x4ox1y","1","69","63","75","","","","","","","","","","","","","","","",""
"null","audio/beep-329314.mp3","null","audio-keyboard-response","171","2.1.0","305731","J=YES, F=NO","tk13x4ox1y","1","69","63","75","","","","","","","","","","","","","","","",""
"null","audio/cave1.wav","null","audio-keyboard-response","172","2.1.0","306290","J=YES, F=NO","tk13x4ox1y","1","69","63","75","","","","","","","","","","","","","","","",""
"978","
          <p id=""word"" style=""font-size: 40px;"">blacket</p>
          <p style=""font-size: 16px;"">J = YES &nbsp;&nbsp;&nbsp; F = NO</p>
        ","j","html-keyboard-response","173","2.1.0","307269","J=YES, F=NO","tk13x4ox1y","1","69","63","75","","","","","","","","","blacket","cave1","pseudoword","pseudoword","f","false","",""
"null","<p style=""font-size: 50px;"">+</p>","null","html-keyboard-response","174","2.1.0","307572","J=YES, F=NO","tk13x4ox1y","1","69","63","75","","","","","","","","","","","","","","","",""
"null","audio/beep-329314.mp3","null","audio-keyboard-response","175","2.1.0","309110","J=YES, F=NO","tk13x4ox1y","1","69","63","75","","","","","","","","","","","","","","","",""
"null","audio/camera1.wav","null","audio-keyboard-response","176","2.1.0","309610","J=YES, F=NO","tk13x4ox1y","1","69","63","75","","","","","","","","","","","","","","","",""
"602","
          <p id=""word"" style=""font-size: 40px;"">stir</p>
          <p style=""font-size: 16px;"">J = YES &nbsp;&nbsp;&nbsp; F = NO</p>
        ","f","html-keyboard-response","177","2.1.0","310213","J=YES, F=NO","tk13x4ox1y","1","69","63","75","","","","","","","","","stir","camera1","filler","filler","j","false","",""
"null","<p style=""font-size: 50px;"">+</p>","null","html-keyboard-response","178","2.1.0","310528","J=YES, F=NO","tk13x4ox1y","1","69","63","75","","","","","","","","","","","","","","","",""
"null","audio/beep-329314.mp3","null","audio-keyboard-response","179","2.1.0","312050","J=YES, F=NO","tk13x4ox1y","1","69","63","75","","","","","","","","","","","","","","","",""
"null","audio/trout1.wav","null","audio-keyboard-response","180","2.1.0","312650","J=YES, F=NO","tk13x4ox1y","1","69","63","75","","","","","","","","","","","","","","","",""
"735","
          <p id=""word"" style=""font-size: 40px;"">spimt</p>
          <p style=""font-size: 16px;"">J = YES &nbsp;&nbsp;&nbsp; F = NO</p>
        ","f","html-keyboard-response","181","2.1.0","313386","J=YES, F=NO","tk13x4ox1y","1","69","63","75","","","","","","","","","spimt","trout1","pseudoword","pseudoword","f","true","",""
"null","<p style=""font-size: 50px;"">+</p>","null","html-keyboard-response","182","2.1.0","313697","J=YES, F=NO","tk13x4ox1y","1","69","63","75","","","","","","","","","","","","","","","",""
"null","audio/beep-329314.mp3","null","audio-keyboard-response","183","2.1.0","315230","J=YES, F=NO","tk13x4ox1y","1","69","63","75","","","","","","","","","","","","","","","",""
"null","audio/alarm1.wav","null","audio-keyboard-response","184","2.1.0","315810","J=YES, F=NO","tk13x4ox1y","1","69","63","75","","","","","","","","","","","","","","","",""
"735","
          <p id=""word"" style=""font-size: 40px;"">swetp</p>
          <p style=""font-size: 16px;"">J = YES &nbsp;&nbsp;&nbsp; F = NO</p>
        ","f","html-keyboard-response","185","2.1.0","316546","J=YES, F=NO","tk13x4ox1y","1","69","63","75","","","","","","","","","swetp","alarm1","pseudoword","pseudoword","f","true","",""
"null","<p style=""font-size: 50px;"">+</p>","null","html-keyboard-response","186","2.1.0","316854","J=YES, F=NO","tk13x4ox1y","1","69","63","75","","","","","","","","","","","","","","","",""
"null","audio/beep-329314.mp3","null","audio-keyboard-response","187","2.1.0","318390","J=YES, F=NO","tk13x4ox1y","1","69","63","75","","","","","","","","","","","","","","","",""
"null","audio/cinema1.wav","null","audio-keyboard-response","188","2.1.0","319150","J=YES, F=NO","tk13x4ox1y","1","69","63","75","","","","","","","","","","","","","","","",""
"859","
          <p id=""word"" style=""font-size: 40px;"">murple</p>
          <p style=""font-size: 16px;"">J = YES &nbsp;&nbsp;&nbsp; F = NO</p>
        ","f","html-keyboard-response","189","2.1.0","320010","J=YES, F=NO","tk13x4ox1y","1","69","63","75","","","","","","","","","murple","cinema1","pseudoword","pseudoword","f","true","",""
"null","<p style=""font-size: 50px;"">+</p>","null","html-keyboard-response","190","2.1.0","320312","J=YES, F=NO","tk13x4ox1y","1","69","63","75","","","","","","","","","","","","","","","",""
"null","audio/beep-329314.mp3","null","audio-keyboard-response","191","2.1.0","321850","J=YES, F=NO","tk13x4ox1y","1","69","63","75","","","","","","","","","","","","","","","",""
"null","audio/enemy1.wav","null","audio-keyboard-response","192","2.1.0","322350","J=YES, F=NO","tk13x4ox1y","1","69","63","75","","","","","","","","","","","","","","","",""
"556","
          <p id=""word"" style=""font-size: 40px;"">defeat</p>
          <p style=""font-size: 16px;"">J = YES &nbsp;&nbsp;&nbsp; F = NO</p>
        ","j","html-keyboard-response","193","2.1.0","322907","J=YES, F=NO","tk13x4ox1y","1","69","63","75","","","","","","","","","defeat","enemy1","literal","experimental","j","true","",""
"null","<p style=""font-size: 50px;"">+</p>","null","html-keyboard-response","194","2.1.0","323215","J=YES, F=NO","tk13x4ox1y","1","69","63","75","","","","","","","","","","","","","","","",""
"null","audio/beep-329314.mp3","null","audio-keyboard-response","195","2.1.0","324750","J=YES, F=NO","tk13x4ox1y","1","69","63","75","","","","","","","","","","","","","","","",""
"null","audio/roof1.wav","null","audio-keyboard-response","196","2.1.0","325310","J=YES, F=NO","tk13x4ox1y","1","69","63","75","","","","","","","","","","","","","","","",""
"533","
          <p id=""word"" style=""font-size: 40px;"">wronb</p>
          <p style=""font-size: 16px;"">J = YES &nbsp;&nbsp;&nbsp; F = NO</p>
        ","f","html-keyboard-response","197","2.1.0","325844","J=YES, F=NO","tk13x4ox1y","1","69","63","75","","","","","","","","","wronb","roof1","pseudoword","pseudoword","f","true","",""
"null","<p style=""font-size: 50px;"">+</p>","null","html-keyboard-response","198","2.1.0","326153","J=YES, F=NO","tk13x4ox1y","1","69","63","75","","","","","","","","","","","","","","","",""
"null","audio/beep-329314.mp3","null","audio-keyboard-response","199","2.1.0","327690","J=YES, F=NO","tk13x4ox1y","1","69","63","75","","","","","","","","","","","","","","","",""
"null","audio/voice.wav","null","audio-keyboard-response","200","2.1.0","328290","J=YES, F=NO","tk13x4ox1y","1","69","63","75","","","","","","","","","","","","","","","",""
"747","
          <p id=""word"" style=""font-size: 40px;"">grintle</p>
          <p style=""font-size: 16px;"">J = YES &nbsp;&nbsp;&nbsp; F = NO</p>
        ","f","html-keyboard-response","201","2.1.0","329038","J=YES, F=NO","tk13x4ox1y","1","69","63","75","","","","","","","","","grintle","voice","pseudoword","pseudoword","f","true","",""
"null","<p style=""font-size: 50px;"">+</p>","null","html-keyboard-response","202","2.1.0","329341","J=YES, F=NO","tk13x4ox1y","1","69","63","75","","","","","","","","","","","","","","","",""
"null","audio/beep-329314.mp3","null","audio-keyboard-response","203","2.1.0","330870","J=YES, F=NO","tk13x4ox1y","1","69","63","75","","","","","","","","","","","","","","","",""
"null","audio/flaw.wav","null","audio-keyboard-response","204","2.1.0","331510","J=YES, F=NO","tk13x4ox1y","1","69","63","75","","","","","","","","","","","","","","","",""
"625","
          <p id=""word"" style=""font-size: 40px;"">thwool</p>
          <p style=""font-size: 16px;"">J = YES &nbsp;&nbsp;&nbsp; F = NO</p>
        ","f","html-keyboard-response","205","2.1.0","332137","J=YES, F=NO","tk13x4ox1y","1","69","63","75","","","","","","","","","thwool","flaw","pseudoword","pseudoword","f","true","",""
"null","<p style=""font-size: 50px;"">+</p>","null","html-keyboard-response","206","2.1.0","332438","J=YES, F=NO","tk13x4ox1y","1","69","63","75","","","","","","","","","","","","","","","",""
"null","audio/beep-329314.mp3","null","audio-keyboard-response","207","2.1.0","333970","J=YES, F=NO","tk13x4ox1y","1","69","63","75","","","","","","","","","","","","","","","",""
"null","audio/age1.wav","null","audio-keyboard-response","208","2.1.0","334530","J=YES, F=NO","tk13x4ox1y","1","69","63","75","","","","","","","","","","","","","","","",""
"544","
          <p id=""word"" style=""font-size: 40px;"">bake</p>
          <p style=""font-size: 16px;"">J = YES &nbsp;&nbsp;&nbsp; F = NO</p>
        ","j","html-keyboard-response","209","2.1.0","335075","J=YES, F=NO","tk13x4ox1y","1","69","63","75","","","","","","","","","bake","age1","filler","filler","j","true","",""
"null","<p style=""font-size: 50px;"">+</p>","null","html-keyboard-response","210","2.1.0","335386","J=YES, F=NO","tk13x4ox1y","1","69","63","75","","","","","","","","","","","","","","","",""
"null","audio/beep-329314.mp3","null","audio-keyboard-response","211","2.1.0","336910","J=YES, F=NO","tk13x4ox1y","1","69","63","75","","","","","","","","","","","","","","","",""
"null","audio/weight1.wav","null","audio-keyboard-response","212","2.1.0","337450","J=YES, F=NO","tk13x4ox1y","1","69","63","75","","","","","","","","","","","","","","","",""
"669","
          <p id=""word"" style=""font-size: 40px;"">crimsh</p>
          <p style=""font-size: 16px;"">J = YES &nbsp;&nbsp;&nbsp; F = NO</p>
        ","f","html-keyboard-response","213","2.1.0","338120","J=YES, F=NO","tk13x4ox1y","1","69","63","75","","","","","","","","","crimsh","weight1","pseudoword","pseudoword","f","true","",""
"null","<p style=""font-size: 50px;"">+</p>","null","html-keyboard-response","214","2.1.0","338431","J=YES, F=NO","tk13x4ox1y","1","69","63","75","","","","","","","","","","","","","","","",""
"null","audio/beep-329314.mp3","null","audio-keyboard-response","215","2.1.0","339970","J=YES, F=NO","tk13x4ox1y","1","69","63","75","","","","","","","","","","","","","","","",""
"null","audio/test1.wav","null","audio-keyboard-response","216","2.1.0","340690","J=YES, F=NO","tk13x4ox1y","1","69","63","75","","","","","","","","","","","","","","","",""
"629","
          <p id=""word"" style=""font-size: 40px;"">twopch</p>
          <p style=""font-size: 16px;"">J = YES &nbsp;&nbsp;&nbsp; F = NO</p>
        ","f","html-keyboard-response","217","2.1.0","341320","J=YES, F=NO","tk13x4ox1y","1","69","63","75","","","","","","","","","twopch","test1","pseudoword","pseudoword","f","true","",""
"null","<p style=""font-size: 50px;"">+</p>","null","html-keyboard-response","218","2.1.0","341633","J=YES, F=NO","tk13x4ox1y","1","69","63","75","","","","","","","","","","","","","","","",""
"null","audio/beep-329314.mp3","null","audio-keyboard-response","219","2.1.0","343170","J=YES, F=NO","tk13x4ox1y","1","69","63","75","","","","","","","","","","","","","","","",""
"null","audio/train.wav","null","audio-keyboard-response","220","2.1.0","343690","J=YES, F=NO","tk13x4ox1y","1","69","63","75","","","","","","","","","","","","","","","",""
"675","
          <p id=""word"" style=""font-size: 40px;"">catch</p>
          <p style=""font-size: 16px;"">J = YES &nbsp;&nbsp;&nbsp; F = NO</p>
        ","j","html-keyboard-response","221","2.1.0","344366","J=YES, F=NO","tk13x4ox1y","1","69","63","75","","","","","","","","","catch","train","metaphor","experimental","j","true","",""
"null","<p style=""font-size: 50px;"">+</p>","null","html-keyboard-response","222","2.1.0","344679","J=YES, F=NO","tk13x4ox1y","1","69","63","75","","","","","","","","","","","","","","","",""
"null","audio/beep-329314.mp3","null","audio-keyboard-response","223","2.1.0","346210","J=YES, F=NO","tk13x4ox1y","1","69","63","75","","","","","","","","","","","","","","","",""
"null","audio/mouth1.wav","null","audio-keyboard-response","224","2.1.0","346930","J=YES, F=NO","tk13x4ox1y","1","69","63","75","","","","","","","","","","","","","","","",""
"938","
          <p id=""word"" style=""font-size: 40px;"">spolial</p>
          <p style=""font-size: 16px;"">J = YES &nbsp;&nbsp;&nbsp; F = NO</p>
        ","f","html-keyboard-response","225","2.1.0","347869","J=YES, F=NO","tk13x4ox1y","1","69","63","75","","","","","","","","","spolial","mouth1","pseudoword","pseudoword","f","true","",""
"null","<p style=""font-size: 50px;"">+</p>","null","html-keyboard-response","226","2.1.0","348175","J=YES, F=NO","tk13x4ox1y","1","69","63","75","","","","","","","","","","","","","","","",""
"null","audio/beep-329314.mp3","null","audio-keyboard-response","227","2.1.0","349711","J=YES, F=NO","tk13x4ox1y","1","69","63","75","","","","","","","","","","","","","","","",""
"null","audio/birth1.wav","null","audio-keyboard-response","228","2.1.0","350270","J=YES, F=NO","tk13x4ox1y","1","69","63","75","","","","","","","","","","","","","","","",""
"1019","
          <p id=""word"" style=""font-size: 40px;"">peel</p>
          <p style=""font-size: 16px;"">J = YES &nbsp;&nbsp;&nbsp; F = NO</p>
        ","f","html-keyboard-response","229","2.1.0","351291","J=YES, F=NO","tk13x4ox1y","1","69","63","75","","","","","","","","","peel","birth1","filler","filler","j","false","",""
"43855","<p>Excellent! You have finished block 1 of 8.</p>
                     <p>Feel free to take a 30 second break.</p>
                     <p>Press any key when you're ready to continue.</p>","j","html-keyboard-response","230","2.1.0","395146","J=YES, F=NO","tk13x4ox1y","1","69","63","75","","","","","","","","","","","","","","","",""
"4303","<p>Starting main block 2 of 8. Press any key to continue.</p>","j","html-keyboard-response","231","2.1.0","399450","J=YES, F=NO","tk13x4ox1y","1","69","63","75","","","","","","","","","","","","","","","",""
"null","<p style=""font-size: 50px;"">+</p>","null","html-keyboard-response","232","2.1.0","399764","J=YES, F=NO","tk13x4ox1y","1","69","63","75","","","","","","","","","","","","","","","",""
"null","audio/beep-329314.mp3","null","audio-keyboard-response","233","2.1.0","401292","J=YES, F=NO","tk13x4ox1y","1","69","63","75","","","","","","","","","","","","","","","",""
"null","audio/topic.wav","null","audio-keyboard-response","234","2.1.0","402032","J=YES, F=NO","tk13x4ox1y","1","69","63","75","","","","","","","","","","","","","","","",""
"720","
          <p id=""word"" style=""font-size: 40px;"">approach</p>
          <p style=""font-size: 16px;"">J = YES &nbsp;&nbsp;&nbsp; F = NO</p>
        ","j","html-keyboard-response","235","2.1.0","402753","J=YES, F=NO","tk13x4ox1y","1","69","63","75","","","","","","","","","approach","topic","metaphor","experimental","j","true","",""
"null","<p style=""font-size: 50px;"">+</p>","null","html-keyboard-response","236","2.1.0","403062","J=YES, F=NO","tk13x4ox1y","1","69","63","75","","","","","","","","","","","","","","","",""
"null","audio/beep-329314.mp3","null","audio-keyboard-response","237","2.1.0","404592","J=YES, F=NO","tk13x4ox1y","1","69","63","75","","","","","","","","","","","","","","","",""
"null","audio/arm.wav","null","audio-keyboard-response","238","2.1.0","405132","J=YES, F=NO","tk13x4ox1y","1","69","63","75","","","","","","","","","","","","","","","",""
"860","
          <p id=""word"" style=""font-size: 40px;"">fold</p>
          <p style=""font-size: 16px;"">J = YES &nbsp;&nbsp;&nbsp; F = NO</p>
        ","j","html-keyboard-response","239","2.1.0","405993","J=YES, F=NO","tk13x4ox1y","1","69","63","75","","","","","","","","","fold","arm","filler","filler","j","true","",""
"null","<p style=""font-size: 50px;"">+</p>","null","html-keyboard-response","240","2.1.0","406298","J=YES, F=NO","tk13x4ox1y","1","69","63","75","","","","","","","","","","","","","","","",""
"null","audio/beep-329314.mp3","null","audio-keyboard-response","241","2.1.0","407832","J=YES, F=NO","tk13x4ox1y","1","69","63","75","","","","","","","","","","","","","","","",""
"null","audio/cloud1.wav","null","audio-keyboard-response","242","2.1.0","408532","J=YES, F=NO","tk13x4ox1y","1","69","63","75","","","","","","","","","","","","","","","",""
"808","
          <p id=""word"" style=""font-size: 40px;"">brotant</p>
          <p style=""font-size: 16px;"">J = YES &nbsp;&nbsp;&nbsp; F = NO</p>
        ","f","html-keyboard-response","243","2.1.0","409341","J=YES, F=NO","tk13x4ox1y","1","69","63","75","","","","","","","","","brotant","cloud1","pseudoword","pseudoword","f","true","",""
"null","<p style=""font-size: 50px;"">+</p>","null","html-keyboard-response","244","2.1.0","409647","J=YES, F=NO","tk13x4ox1y","1","69","63","75","","","","","","","","","","","","","","","",""
"null","audio/beep-329314.mp3","null","audio-keyboard-response","245","2.1.0","411172","J=YES, F=NO","tk13x4ox1y","1","69","63","75","","","","","","","","","","","","","","","",""
"null","audio/belief.wav","null","audio-keyboard-response","246","2.1.0","411792","J=YES, F=NO","tk13x4ox1y","1","69","63","75","","","","","","","","","","","","","","","",""
"539","
          <p id=""word"" style=""font-size: 40px;"">share</p>
          <p style=""font-size: 16px;"">J = YES &nbsp;&nbsp;&nbsp; F = NO</p>
        ","j","html-keyboard-response","247","2.1.0","412332","J=YES, F=NO","tk13x4ox1y","1","69","63","75","","","","","","","","","share","belief","metaphor","experimental","j","true","",""
"null","<p style=""font-size: 50px;"">+</p>","null","html-keyboard-response","248","2.1.0","412639","J=YES, F=NO","tk13x4ox1y","1","69","63","75","","","","","","","","","","","","","","","",""
"null","audio/beep-329314.mp3","null","audio-keyboard-response","249","2.1.0","414172","J=YES, F=NO","tk13x4ox1y","1","69","63","75","","","","","","","","","","","","","","","",""
"null","audio/prisoner.wav","null","audio-keyboard-response","250","2.1.0","414692","J=YES, F=NO","tk13x4ox1y","1","69","63","75","","","","","","","","","","","","","","","",""
"745","
          <p id=""word"" style=""font-size: 40px;"">release</p>
          <p style=""font-size: 16px;"">J = YES &nbsp;&nbsp;&nbsp; F = NO</p>
        ","j","html-keyboard-response","251","2.1.0","415438","J=YES, F=NO","tk13x4ox1y","1","69","63","75","","","","","","","","","release","prisoner","literal","experimental","j","true","",""
"null","<p style=""font-size: 50px;"">+</p>","null","html-keyboard-response","252","2.1.0","415750","J=YES, F=NO","tk13x4ox1y","1","69","63","75","","","","","","","","","","","","","","","",""
"null","audio/beep-329314.mp3","null","audio-keyboard-response","253","2.1.0","417272","J=YES, F=NO","tk13x4ox1y","1","69","63","75","","","","","","","","","","","","","","","",""
"null","audio/burden.wav","null","audio-keyboard-response","254","2.1.0","417792","J=YES, F=NO","tk13x4ox1y","1","69","63","75","","","","","","","","","","","","","","","",""
"704","
          <p id=""word"" style=""font-size: 40px;"">carry</p>
          <p style=""font-size: 16px;"">J = YES &nbsp;&nbsp;&nbsp; F = NO</p>
        ","j","html-keyboard-response","255","2.1.0","418497","J=YES, F=NO","tk13x4ox1y","1","69","63","75","","","","","","","","","carry","burden","metaphor","experimental","j","true","",""
"null","<p style=""font-size: 50px;"">+</p>","null","html-keyboard-response","256","2.1.0","418805","J=YES, F=NO","tk13x4ox1y","1","69","63","75","","","","","","","","","","","","","","","",""
"null","audio/beep-329314.mp3","null","audio-keyboard-response","257","2.1.0","420332","J=YES, F=NO","tk13x4ox1y","1","69","63","75","","","","","","","","","","","","","","","",""
"null","audio/bottle.wav","null","audio-keyboard-response","258","2.1.0","420972","J=YES, F=NO","tk13x4ox1y","1","69","63","75","","","","","","","","","","","","","","","",""
"636","
          <p id=""word"" style=""font-size: 40px;"">open</p>
          <p style=""font-size: 16px;"">J = YES &nbsp;&nbsp;&nbsp; F = NO</p>
        ","j","html-keyboard-response","259","2.1.0","421609","J=YES, F=NO","tk13x4ox1y","1","69","63","75","","","","","","","","","open","bottle","literal","experimental","j","true","",""
"null","<p style=""font-size: 50px;"">+</p>","null","html-keyboard-response","260","2.1.0","421915","J=YES, F=NO","tk13x4ox1y","1","69","63","75","","","","","","","","","","","","","","","",""
"null","audio/beep-329314.mp3","null","audio-keyboard-response","261","2.1.0","423452","J=YES, F=NO","tk13x4ox1y","1","69","63","75","","","","","","","","","","","","","","","",""
"null","audio/neck.wav","null","audio-keyboard-response","262","2.1.0","424012","J=YES, F=NO","tk13x4ox1y","1","69","63","75","","","","","","","","","","","","","","","",""
"1375","
          <p id=""word"" style=""font-size: 40px;"">werling</p>
          <p style=""font-size: 16px;"">J = YES &nbsp;&nbsp;&nbsp; F = NO</p>
        ","j","html-keyboard-response","263","2.1.0","425388","J=YES, F=NO","tk13x4ox1y","1","69","63","75","","","","","","","","","werling","neck","pseudoword","pseudoword","f","false","",""
"null","<p style=""font-size: 50px;"">+</p>","null","html-keyboard-response","264","2.1.0","425693","J=YES, F=NO","tk13x4ox1y","1","69","63","75","","","","","","","","","","","","","","","",""
"null","audio/beep-329314.mp3","null","audio-keyboard-response","265","2.1.0","427232","J=YES, F=NO","tk13x4ox1y","1","69","63","75","","","","","","","","","","","","","","","",""
"null","audio/smirk1.wav","null","audio-keyboard-response","266","2.1.0","428112","J=YES, F=NO","tk13x4ox1y","1","69","63","75","","","","","","","","","","","","","","","",""
"651","
          <p id=""word"" style=""font-size: 40px;"">wipe</p>
          <p style=""font-size: 16px;"">J = YES &nbsp;&nbsp;&nbsp; F = NO</p>
        ","f","html-keyboard-response","267","2.1.0","428764","J=YES, F=NO","tk13x4ox1y","1","69","63","75","","","","","","","","","wipe","smirk1","metaphor","experimental","j","false","",""
"null","<p style=""font-size: 50px;"">+</p>","null","html-keyboard-response","268","2.1.0","429068","J=YES, F=NO","tk13x4ox1y","1","69","63","75","","","","","","","","","","","","","","","",""
"null","audio/beep-329314.mp3","null","audio-keyboard-response","269","2.1.0","430592","J=YES, F=NO","tk13x4ox1y","1","69","63","75","","","","","","","","","","","","","","","",""
"null","audio/storm1.wav","null","audio-keyboard-response","270","2.1.0","431232","J=YES, F=NO","tk13x4ox1y","1","69","63","75","","","","","","","","","","","","","","","",""
"569","
          <p id=""word"" style=""font-size: 40px;"">climb</p>
          <p style=""font-size: 16px;"">J = YES &nbsp;&nbsp;&nbsp; F = NO</p>
        ","j","html-keyboard-response","271","2.1.0","431802","J=YES, F=NO","tk13x4ox1y","1","69","63","75","","","","","","","","","climb","storm1","unrelated","experimental","j","true","",""
"null","<p style=""font-size: 50px;"">+</p>","null","html-keyboard-response","272","2.1.0","432118","J=YES, F=NO","tk13x4ox1y","1","69","63","75","","","","","","","","","","","","","","","",""
"null","audio/beep-329314.mp3","null","audio-keyboard-response","273","2.1.0","433652","J=YES, F=NO","tk13x4ox1y","1","69","63","75","","","","","","","","","","","","","","","",""
"null","audio/death1.wav","null","audio-keyboard-response","274","2.1.0","434152","J=YES, F=NO","tk13x4ox1y","1","69","63","75","","","","","","","","","","","","","","","",""
"755","
          <p id=""word"" style=""font-size: 40px;"">conquer</p>
          <p style=""font-size: 16px;"">J = YES &nbsp;&nbsp;&nbsp; F = NO</p>
        ","j","html-keyboard-response","275","2.1.0","434908","J=YES, F=NO","tk13x4ox1y","1","69","63","75","","","","","","","","","conquer","death1","metaphor","experimental","j","true","",""
"null","<p style=""font-size: 50px;"">+</p>","null","html-keyboard-response","276","2.1.0","435214","J=YES, F=NO","tk13x4ox1y","1","69","63","75","","","","","","","","","","","","","","","",""
"null","audio/beep-329314.mp3","null","audio-keyboard-response","277","2.1.0","436752","J=YES, F=NO","tk13x4ox1y","1","69","63","75","","","","","","","","","","","","","","","",""
"null","audio/mile1.wav","null","audio-keyboard-response","278","2.1.0","437392","J=YES, F=NO","tk13x4ox1y","1","69","63","75","","","","","","","","","","","","","","","",""
"1153","
          <p id=""word"" style=""font-size: 40px;"">writch</p>
          <p style=""font-size: 16px;"">J = YES &nbsp;&nbsp;&nbsp; F = NO</p>
        ","j","html-keyboard-response","279","2.1.0","438546","J=YES, F=NO","tk13x4ox1y","1","69","63","75","","","","","","","","","writch","mile1","pseudoword","pseudoword","f","false","",""
"null","<p style=""font-size: 50px;"">+</p>","null","html-keyboard-response","280","2.1.0","438853","J=YES, F=NO","tk13x4ox1y","1","69","63","75","","","","","","","","","","","","","","","",""
"null","audio/beep-329314.mp3","null","audio-keyboard-response","281","2.1.0","440392","J=YES, F=NO","tk13x4ox1y","1","69","63","75","","","","","","","","","","","","","","","",""
"null","audio/ankle1.wav","null","audio-keyboard-response","282","2.1.0","440932","J=YES, F=NO","tk13x4ox1y","1","69","63","75","","","","","","","","","","","","","","","",""
"564","
          <p id=""word"" style=""font-size: 40px;"">kick</p>
          <p style=""font-size: 16px;"">J = YES &nbsp;&nbsp;&nbsp; F = NO</p>
        ","j","html-keyboard-response","283","2.1.0","441497","J=YES, F=NO","tk13x4ox1y","1","69","63","75","","","","","","","","","kick","ankle1","filler","filler","j","true","",""
"null","<p style=""font-size: 50px;"">+</p>","null","html-keyboard-response","284","2.1.0","441811","J=YES, F=NO","tk13x4ox1y","1","69","63","75","","","","","","","","","","","","","","","",""
"null","audio/beep-329314.mp3","null","audio-keyboard-response","285","2.1.0","443352","J=YES, F=NO","tk13x4ox1y","1","69","63","75","","","","","","","","","","","","","","","",""
"null","audio/purpose.wav","null","audio-keyboard-response","286","2.1.0","444032","J=YES, F=NO","tk13x4ox1y","1","69","63","75","","","","","","","","","","","","","","","",""
"704","
          <p id=""word"" style=""font-size: 40px;"">whigm</p>
          <p style=""font-size: 16px;"">J = YES &nbsp;&nbsp;&nbsp; F = NO</p>
        ","f","html-keyboard-response","287","2.1.0","444737","J=YES, F=NO","tk13x4ox1y","1","69","63","75","","","","","","","","","whigm","purpose","pseudoword","pseudoword","f","true","",""
"null","<p style=""font-size: 50px;"">+</p>","null","html-keyboard-response","288","2.1.0","445046","J=YES, F=NO","tk13x4ox1y","1","69","63","75","","","","","","","","","","","","","","","",""
"null","audio/beep-329314.mp3","null","audio-keyboard-response","289","2.1.0","446572","J=YES, F=NO","tk13x4ox1y","1","69","63","75","","","","","","","","","","","","","","","",""
"null","audio/pine.wav","null","audio-keyboard-response","290","2.1.0","447072","J=YES, F=NO","tk13x4ox1y","1","69","63","75","","","","","","","","","","","","","","","",""
"702","
          <p id=""word"" style=""font-size: 40px;"">crebble</p>
          <p style=""font-size: 16px;"">J = YES &nbsp;&nbsp;&nbsp; F = NO</p>
        ","f","html-keyboard-response","291","2.1.0","447776","J=YES, F=NO","tk13x4ox1y","1","69","63","75","","","","","","","","","crebble","pine","pseudoword","pseudoword","f","true","",""
"null","<p style=""font-size: 50px;"">+</p>","null","html-keyboard-response","292","2.1.0","448078","J=YES, F=NO","tk13x4ox1y","1","69","63","75","","","","","","","","","","","","","","","",""
"null","audio/beep-329314.mp3","null","audio-keyboard-response","293","2.1.0","449613","J=YES, F=NO","tk13x4ox1y","1","69","63","75","","","","","","","","","","","","","","","",""
"null","audio/terrain.wav","null","audio-keyboard-response","294","2.1.0","450192","J=YES, F=NO","tk13x4ox1y","1","69","63","75","","","","","","","","","","","","","","","",""
"715","
          <p id=""word"" style=""font-size: 40px;"">navigate</p>
          <p style=""font-size: 16px;"">J = YES &nbsp;&nbsp;&nbsp; F = NO</p>
        ","j","html-keyboard-response","295","2.1.0","450908","J=YES, F=NO","tk13x4ox1y","1","69","63","75","","","","","","","","","navigate","terrain","literal","experimental","j","true","",""
"12368","<p>Excellent! You have finished block 2 of 8.</p>
                     <p>Feel free to take a 30 second break.</p>
                     <p>Press any key when you're ready to continue.</p>","j","html-keyboard-response","296","2.1.0","463276","J=YES, F=NO","tk13x4ox1y","1","69","63","75","","","","","","","","","","","","","","","",""
"2289","<p>Starting main block 3 of 8. Press any key to continue.</p>","j","html-keyboard-response","297","2.1.0","465566","J=YES, F=NO","tk13x4ox1y","1","69","63","75","","","","","","","","","","","","","","","",""
"null","<p style=""font-size: 50px;"">+</p>","null","html-keyboard-response","298","2.1.0","465872","J=YES, F=NO","tk13x4ox1y","1","69","63","75","","","","","","","","","","","","","","","",""
"null","audio/beep-329314.mp3","null","audio-keyboard-response","299","2.1.0","467397","J=YES, F=NO","tk13x4ox1y","1","69","63","75","","","","","","","","","","","","","","","",""
"null","audio/hotel1.wav","null","audio-keyboard-response","300","2.1.0","468038","J=YES, F=NO","tk13x4ox1y","1","69","63","75","","","","","","","","","","","","","","","",""
"639","
          <p id=""word"" style=""font-size: 40px;"">spread</p>
          <p style=""font-size: 16px;"">J = YES &nbsp;&nbsp;&nbsp; F = NO</p>
        ","j","html-keyboard-response","301","2.1.0","468678","J=YES, F=NO","tk13x4ox1y","1","69","63","75","","","","","","","","","spread","hotel1","unrelated","experimental","j","true","",""
"null","<p style=""font-size: 50px;"">+</p>","null","html-keyboard-response","302","2.1.0","468994","J=YES, F=NO","tk13x4ox1y","1","69","63","75","","","","","","","","","","","","","","","",""
"null","audio/beep-329314.mp3","null","audio-keyboard-response","303","2.1.0","470517","J=YES, F=NO","tk13x4ox1y","1","69","63","75","","","","","","","","","","","","","","","",""
"null","audio/bush1.wav","null","audio-keyboard-response","304","2.1.0","470997","J=YES, F=NO","tk13x4ox1y","1","69","63","75","","","","","","","","","","","","","","","",""
"745","
          <p id=""word"" style=""font-size: 40px;"">platined</p>
          <p style=""font-size: 16px;"">J = YES &nbsp;&nbsp;&nbsp; F = NO</p>
        ","f","html-keyboard-response","305","2.1.0","471743","J=YES, F=NO","tk13x4ox1y","1","69","63","75","","","","","","","","","platined","bush1","pseudoword","pseudoword","f","true","",""
"null","<p style=""font-size: 50px;"">+</p>","null","html-keyboard-response","306","2.1.0","472047","J=YES, F=NO","tk13x4ox1y","1","69","63","75","","","","","","","","","","","","","","","",""
"null","audio/beep-329314.mp3","null","audio-keyboard-response","307","2.1.0","473578","J=YES, F=NO","tk13x4ox1y","1","69","63","75","","","","","","","","","","","","","","","",""
"null","audio/age1.wav","null","audio-keyboard-response","308","2.1.0","474117","J=YES, F=NO","tk13x4ox1y","1","69","63","75","","","","","","","","","","","","","","","",""
"643","
          <p id=""word"" style=""font-size: 40px;"">lachry</p>
          <p style=""font-size: 16px;"">J = YES &nbsp;&nbsp;&nbsp; F = NO</p>
        ","f","html-keyboard-response","309","2.1.0","474761","J=YES, F=NO","tk13x4ox1y","1","69","63","75","","","","","","","","","lachry","age1","pseudoword","pseudoword","f","true","",""
"null","<p style=""font-size: 50px;"">+</p>","null","html-keyboard-response","310","2.1.0","475068","J=YES, F=NO","tk13x4ox1y","1","69","63","75","","","","","","","","","","","","","","","",""
"null","audio/beep-329314.mp3","null","audio-keyboard-response","311","2.1.0","476597","J=YES, F=NO","tk13x4ox1y","1","69","63","75","","","","","","","","","","","","","","","",""
"null","audio/hawk1.wav","null","audio-keyboard-response","312","2.1.0","477197","J=YES, F=NO","tk13x4ox1y","1","69","63","75","","","","","","","","","","","","","","","",""
"648","
          <p id=""word"" style=""font-size: 40px;"">ostach</p>
          <p style=""font-size: 16px;"">J = YES &nbsp;&nbsp;&nbsp; F = NO</p>
        ","f","html-keyboard-response","313","2.1.0","477846","J=YES, F=NO","tk13x4ox1y","1","69","63","75","","","","","","","","","ostach","hawk1","pseudoword","pseudoword","f","true","",""
"null","<p style=""font-size: 50px;"">+</p>","null","html-keyboard-response","314","2.1.0","478160","J=YES, F=NO","tk13x4ox1y","1","69","63","75","","","","","","","","","","","","","","","",""
"null","audio/beep-329314.mp3","null","audio-keyboard-response","315","2.1.0","479698","J=YES, F=NO","tk13x4ox1y","1","69","63","75","","","","","","","","","","","","","","","",""
"null","audio/radio1.wav","null","audio-keyboard-response","316","2.1.0","480438","J=YES, F=NO","tk13x4ox1y","1","69","63","75","","","","","","","","","","","","","","","",""
"626","
          <p id=""word"" style=""font-size: 40px;"">blanter</p>
          <p style=""font-size: 16px;"">J = YES &nbsp;&nbsp;&nbsp; F = NO</p>
        ","f","html-keyboard-response","317","2.1.0","481065","J=YES, F=NO","tk13x4ox1y","1","69","63","75","","","","","","","","","blanter","radio1","pseudoword","pseudoword","f","true","",""
"null","<p style=""font-size: 50px;"">+</p>","null","html-keyboard-response","318","2.1.0","481370","J=YES, F=NO","tk13x4ox1y","1","69","63","75","","","","","","","","","","","","","","","",""
"null","audio/beep-329314.mp3","null","audio-keyboard-response","319","2.1.0","482898","J=YES, F=NO","tk13x4ox1y","1","69","63","75","","","","","","","","","","","","","","","",""
"null","audio/foot1.wav","null","audio-keyboard-response","320","2.1.0","483618","J=YES, F=NO","tk13x4ox1y","1","69","63","75","","","","","","","","","","","","","","","",""
"606","
          <p id=""word"" style=""font-size: 40px;"">thrutt</p>
          <p style=""font-size: 16px;"">J = YES &nbsp;&nbsp;&nbsp; F = NO</p>
        ","f","html-keyboard-response","321","2.1.0","484224","J=YES, F=NO","tk13x4ox1y","1","69","63","75","","","","","","","","","thrutt","foot1","pseudoword","pseudoword","f","true","",""
"null","<p style=""font-size: 50px;"">+</p>","null","html-keyboard-response","322","2.1.0","484532","J=YES, F=NO","tk13x4ox1y","1","69","63","75","","","","","","","","","","","","","","","",""
"null","audio/beep-329314.mp3","null","audio-keyboard-response","323","2.1.0","486057","J=YES, F=NO","tk13x4ox1y","1","69","63","75","","","","","","","","","","","","","","","",""
"null","audio/empire.wav","null","audio-keyboard-response","324","2.1.0","486857","J=YES, F=NO","tk13x4ox1y","1","69","63","75","","","","","","","","","","","","","","","",""
"693","
          <p id=""word"" style=""font-size: 40px;"">slorby</p>
          <p style=""font-size: 16px;"">J = YES &nbsp;&nbsp;&nbsp; F = NO</p>
        ","f","html-keyboard-response","325","2.1.0","487551","J=YES, F=NO","tk13x4ox1y","1","69","63","75","","","","","","","","","slorby","empire","pseudoword","pseudoword","f","true","",""
"null","<p style=""font-size: 50px;"">+</p>","null","html-keyboard-response","326","2.1.0","487862","J=YES, F=NO","tk13x4ox1y","1","69","63","75","","","","","","","","","","","","","","","",""
"null","audio/beep-329314.mp3","null","audio-keyboard-response","327","2.1.0","489397","J=YES, F=NO","tk13x4ox1y","1","69","63","75","","","","","","","","","","","","","","","",""
"null","audio/fence.wav","null","audio-keyboard-response","328","2.1.0","490197","J=YES, F=NO","tk13x4ox1y","1","69","63","75","","","","","","","","","","","","","","","",""
"673","
          <p id=""word"" style=""font-size: 40px;"">trim</p>
          <p style=""font-size: 16px;"">J = YES &nbsp;&nbsp;&nbsp; F = NO</p>
        ","j","html-keyboard-response","329","2.1.0","490871","J=YES, F=NO","tk13x4ox1y","1","69","63","75","","","","","","","","","trim","fence","filler","filler","j","true","",""
"null","<p style=""font-size: 50px;"">+</p>","null","html-keyboard-response","330","2.1.0","491182","J=YES, F=NO","tk13x4ox1y","1","69","63","75","","","","","","","","","","","","","","","",""
"null","audio/beep-329314.mp3","null","audio-keyboard-response","331","2.1.0","492717","J=YES, F=NO","tk13x4ox1y","1","69","63","75","","","","","","","","","","","","","","","",""
"null","audio/burden.wav","null","audio-keyboard-response","332","2.1.0","493217","J=YES, F=NO","tk13x4ox1y","1","69","63","75","","","","","","","","","","","","","","","",""
"745","
          <p id=""word"" style=""font-size: 40px;"">whotth</p>
          <p style=""font-size: 16px;"">J = YES &nbsp;&nbsp;&nbsp; F = NO</p>
        ","f","html-keyboard-response","333","2.1.0","493963","J=YES, F=NO","tk13x4ox1y","1","69","63","75","","","","","","","","","whotth","burden","pseudoword","pseudoword","f","true","",""
"null","<p style=""font-size: 50px;"">+</p>","null","html-keyboard-response","334","2.1.0","494278","J=YES, F=NO","tk13x4ox1y","1","69","63","75","","","","","","","","","","","","","","","",""
"null","audio/beep-329314.mp3","null","audio-keyboard-response","335","2.1.0","495818","J=YES, F=NO","tk13x4ox1y","1","69","63","75","","","","","","","","","","","","","","","",""
"null","audio/client1.wav","null","audio-keyboard-response","336","2.1.0","496657","J=YES, F=NO","tk13x4ox1y","1","69","63","75","","","","","","","","","","","","","","","",""
"774","
          <p id=""word"" style=""font-size: 40px;"">droothe</p>
          <p style=""font-size: 16px;"">J = YES &nbsp;&nbsp;&nbsp; F = NO</p>
        ","f","html-keyboard-response","337","2.1.0","497432","J=YES, F=NO","tk13x4ox1y","1","69","63","75","","","","","","","","","droothe","client1","pseudoword","pseudoword","f","true","",""
"null","<p style=""font-size: 50px;"">+</p>","null","html-keyboard-response","338","2.1.0","497739","J=YES, F=NO","tk13x4ox1y","1","69","63","75","","","","","","","","","","","","","","","",""
"null","audio/beep-329314.mp3","null","audio-keyboard-response","339","2.1.0","499277","J=YES, F=NO","tk13x4ox1y","1","69","63","75","","","","","","","","","","","","","","","",""
"null","audio/holiday1.wav","null","audio-keyboard-response","340","2.1.0","500058","J=YES, F=NO","tk13x4ox1y","1","69","63","75","","","","","","","","","","","","","","","",""
"1274","
          <p id=""word"" style=""font-size: 40px;"">drivets</p>
          <p style=""font-size: 16px;"">J = YES &nbsp;&nbsp;&nbsp; F = NO</p>
        ","f","html-keyboard-response","341","2.1.0","501332","J=YES, F=NO","tk13x4ox1y","1","69","63","75","","","","","","","","","drivets","holiday1","pseudoword","pseudoword","f","true","",""
"null","<p style=""font-size: 50px;"">+</p>","null","html-keyboard-response","342","2.1.0","501646","J=YES, F=NO","tk13x4ox1y","1","69","63","75","","","","","","","","","","","","","","","",""
"null","audio/beep-329314.mp3","null","audio-keyboard-response","343","2.1.0","503178","J=YES, F=NO","tk13x4ox1y","1","69","63","75","","","","","","","","","","","","","","","",""
"null","audio/foot1.wav","null","audio-keyboard-response","344","2.1.0","503738","J=YES, F=NO","tk13x4ox1y","1","69","63","75","","","","","","","","","","","","","","","",""
"577","
          <p id=""word"" style=""font-size: 40px;"">close</p>
          <p style=""font-size: 16px;"">J = YES &nbsp;&nbsp;&nbsp; F = NO</p>
        ","j","html-keyboard-response","345","2.1.0","504316","J=YES, F=NO","tk13x4ox1y","1","69","63","75","","","","","","","","","close","foot1","unrelated","experimental","j","true","",""
"null","<p style=""font-size: 50px;"">+</p>","null","html-keyboard-response","346","2.1.0","504628","J=YES, F=NO","tk13x4ox1y","1","69","63","75","","","","","","","","","","","","","","","",""
"null","audio/beep-329314.mp3","null","audio-keyboard-response","347","2.1.0","506157","J=YES, F=NO","tk13x4ox1y","1","69","63","75","","","","","","","","","","","","","","","",""
"null","audio/corpse1.wav","null","audio-keyboard-response","348","2.1.0","506937","J=YES, F=NO","tk13x4ox1y","1","69","63","75","","","","","","","","","","","","","","","",""
"793","
          <p id=""word"" style=""font-size: 40px;"">glonet</p>
          <p style=""font-size: 16px;"">J = YES &nbsp;&nbsp;&nbsp; F = NO</p>
        ","f","html-keyboard-response","349","2.1.0","507731","J=YES, F=NO","tk13x4ox1y","1","69","63","75","","","","","","","","","glonet","corpse1","pseudoword","pseudoword","f","true","",""
"null","<p style=""font-size: 50px;"">+</p>","null","html-keyboard-response","350","2.1.0","508038","J=YES, F=NO","tk13x4ox1y","1","69","63","75","","","","","","","","","","","","","","","",""
"null","audio/beep-329314.mp3","null","audio-keyboard-response","351","2.1.0","509577","J=YES, F=NO","tk13x4ox1y","1","69","63","75","","","","","","","","","","","","","","","",""
"null","audio/dollar.wav","null","audio-keyboard-response","352","2.1.0","509977","J=YES, F=NO","tk13x4ox1y","1","69","63","75","","","","","","","","","","","","","","","",""
"588","
          <p id=""word"" style=""font-size: 40px;"">gliptism</p>
          <p style=""font-size: 16px;"">J = YES &nbsp;&nbsp;&nbsp; F = NO</p>
        ","f","html-keyboard-response","353","2.1.0","510566","J=YES, F=NO","tk13x4ox1y","1","69","63","75","","","","","","","","","gliptism","dollar","pseudoword","pseudoword","f","true","",""
"null","<p style=""font-size: 50px;"">+</p>","null","html-keyboard-response","354","2.1.0","510880","J=YES, F=NO","tk13x4ox1y","1","69","63","75","","","","","","","","","","","","","","","",""
"null","audio/beep-329314.mp3","null","audio-keyboard-response","355","2.1.0","512417","J=YES, F=NO","tk13x4ox1y","1","69","63","75","","","","","","","","","","","","","","","",""
"null","audio/pig.wav","null","audio-keyboard-response","356","2.1.0","512818","J=YES, F=NO","tk13x4ox1y","1","69","63","75","","","","","","","","","","","","","","","",""
"658","
          <p id=""word"" style=""font-size: 40px;"">tirlike</p>
          <p style=""font-size: 16px;"">J = YES &nbsp;&nbsp;&nbsp; F = NO</p>
        ","f","html-keyboard-response","357","2.1.0","513476","J=YES, F=NO","tk13x4ox1y","1","69","63","75","","","","","","","","","tirlike","pig","pseudoword","pseudoword","f","true","",""
"null","<p style=""font-size: 50px;"">+</p>","null","html-keyboard-response","358","2.1.0","513782","J=YES, F=NO","tk13x4ox1y","1","69","63","75","","","","","","","","","","","","","","","",""
"null","audio/beep-329314.mp3","null","audio-keyboard-response","359","2.1.0","515318","J=YES, F=NO","tk13x4ox1y","1","69","63","75","","","","","","","","","","","","","","","",""
"null","audio/grass.wav","null","audio-keyboard-response","360","2.1.0","516117","J=YES, F=NO","tk13x4ox1y","1","69","63","75","","","","","","","","","","","","","","","",""
"632","
          <p id=""word"" style=""font-size: 40px;"">cut</p>
          <p style=""font-size: 16px;"">J = YES &nbsp;&nbsp;&nbsp; F = NO</p>
        ","j","html-keyboard-response","361","2.1.0","516750","J=YES, F=NO","tk13x4ox1y","1","69","63","75","","","","","","","","","cut","grass","literal","experimental","j","true","",""
"16245","<p>Excellent! You have finished block 3 of 8.</p>
                     <p>Feel free to take a 30 second break.</p>
                     <p>Press any key when you're ready to continue.</p>","Enter","html-keyboard-response","362","2.1.0","532995","J=YES, F=NO","tk13x4ox1y","1","69","63","75","","","","","","","","","","","","","","","",""
"1609","<p>Starting main block 4 of 8. Press any key to continue.</p>","j","html-keyboard-response","363","2.1.0","534605","J=YES, F=NO","tk13x4ox1y","1","69","63","75","","","","","","","","","","","","","","","",""
"null","<p style=""font-size: 50px;"">+</p>","null","html-keyboard-response","364","2.1.0","534911","J=YES, F=NO","tk13x4ox1y","1","69","63","75","","","","","","","","","","","","","","","",""
"null","audio/beep-329314.mp3","null","audio-keyboard-response","365","2.1.0","536438","J=YES, F=NO","tk13x4ox1y","1","69","63","75","","","","","","","","","","","","","","","",""
"null","audio/noise1.wav","null","audio-keyboard-response","366","2.1.0","537028","J=YES, F=NO","tk13x4ox1y","1","69","63","75","","","","","","","","","","","","","","","",""
"553","
          <p id=""word"" style=""font-size: 40px;"">build</p>
          <p style=""font-size: 16px;"">J = YES &nbsp;&nbsp;&nbsp; F = NO</p>
        ","j","html-keyboard-response","367","2.1.0","537582","J=YES, F=NO","tk13x4ox1y","1","69","63","75","","","","","","","","","build","noise1","unrelated","experimental","j","true","",""
"null","<p style=""font-size: 50px;"">+</p>","null","html-keyboard-response","368","2.1.0","537892","J=YES, F=NO","tk13x4ox1y","1","69","63","75","","","","","","","","","","","","","","","",""
"null","audio/beep-329314.mp3","null","audio-keyboard-response","369","2.1.0","539418","J=YES, F=NO","tk13x4ox1y","1","69","63","75","","","","","","","","","","","","","","","",""
"null","audio/breath.wav","null","audio-keyboard-response","370","2.1.0","540128","J=YES, F=NO","tk13x4ox1y","1","69","63","75","","","","","","","","","","","","","","","",""
"888","
          <p id=""word"" style=""font-size: 40px;"">twets</p>
          <p style=""font-size: 16px;"">J = YES &nbsp;&nbsp;&nbsp; F = NO</p>
        ","f","html-keyboard-response","371","2.1.0","541017","J=YES, F=NO","tk13x4ox1y","1","69","63","75","","","","","","","","","twets","breath","pseudoword","pseudoword","f","true","",""
"null","<p style=""font-size: 50px;"">+</p>","null","html-keyboard-response","372","2.1.0","541326","J=YES, F=NO","tk13x4ox1y","1","69","63","75","","","","","","","","","","","","","","","",""
"null","audio/beep-329314.mp3","null","audio-keyboard-response","373","2.1.0","542858","J=YES, F=NO","tk13x4ox1y","1","69","63","75","","","","","","","","","","","","","","","",""
"null","audio/mile1.wav","null","audio-keyboard-response","374","2.1.0","543327","J=YES, F=NO","tk13x4ox1y","1","69","63","75","","","","","","","","","","","","","","","",""
"531","
          <p id=""word"" style=""font-size: 40px;"">run</p>
          <p style=""font-size: 16px;"">J = YES &nbsp;&nbsp;&nbsp; F = NO</p>
        ","j","html-keyboard-response","375","2.1.0","543859","J=YES, F=NO","tk13x4ox1y","1","69","63","75","","","","","","","","","run","mile1","literal","experimental","j","true","",""
"null","<p style=""font-size: 50px;"">+</p>","null","html-keyboard-response","376","2.1.0","544162","J=YES, F=NO","tk13x4ox1y","1","69","63","75","","","","","","","","","","","","","","","",""
"null","audio/beep-329314.mp3","null","audio-keyboard-response","377","2.1.0","545698","J=YES, F=NO","tk13x4ox1y","1","69","63","75","","","","","","","","","","","","","","","",""
"null","audio/tomato.wav","null","audio-keyboard-response","378","2.1.0","546347","J=YES, F=NO","tk13x4ox1y","1","69","63","75","","","","","","","","","","","","","","","",""
"630","
          <p id=""word"" style=""font-size: 40px;"">grow</p>
          <p style=""font-size: 16px;"">J = YES &nbsp;&nbsp;&nbsp; F = NO</p>
        ","j","html-keyboard-response","379","2.1.0","546978","J=YES, F=NO","tk13x4ox1y","1","69","63","75","","","","","","","","","grow","tomato","literal","experimental","j","true","",""
"null","<p style=""font-size: 50px;"">+</p>","null","html-keyboard-response","380","2.1.0","547290","J=YES, F=NO","tk13x4ox1y","1","69","63","75","","","","","","","","","","","","","","","",""
"null","audio/beep-329314.mp3","null","audio-keyboard-response","381","2.1.0","548818","J=YES, F=NO","tk13x4ox1y","1","69","63","75","","","","","","","","","","","","","","","",""
"null","audio/pattern.wav","null","audio-keyboard-response","382","2.1.0","549348","J=YES, F=NO","tk13x4ox1y","1","69","63","75","","","","","","","","","","","","","","","",""
"883","
          <p id=""word"" style=""font-size: 40px;"">tug</p>
          <p style=""font-size: 16px;"">J = YES &nbsp;&nbsp;&nbsp; F = NO</p>
        ","f","html-keyboard-response","383","2.1.0","550231","J=YES, F=NO","tk13x4ox1y","1","69","63","75","","","","","","","","","tug","pattern","filler","filler","j","false","",""
"null","<p style=""font-size: 50px;"">+</p>","null","html-keyboard-response","384","2.1.0","550546","J=YES, F=NO","tk13x4ox1y","1","69","63","75","","","","","","","","","","","","","","","",""
"null","audio/beep-329314.mp3","null","audio-keyboard-response","385","2.1.0","552077","J=YES, F=NO","tk13x4ox1y","1","69","63","75","","","","","","","","","","","","","","","",""
"null","audio/camera1.wav","null","audio-keyboard-response","386","2.1.0","552548","J=YES, F=NO","tk13x4ox1y","1","69","63","75","","","","","","","","","","","","","","","",""
"733","
          <p id=""word"" style=""font-size: 40px;"">bring</p>
          <p style=""font-size: 16px;"">J = YES &nbsp;&nbsp;&nbsp; F = NO</p>
        ","j","html-keyboard-response","387","2.1.0","553282","J=YES, F=NO","tk13x4ox1y","1","69","63","75","","","","","","","","","bring","camera1","literal","experimental","j","true","",""
"null","<p style=""font-size: 50px;"">+</p>","null","html-keyboard-response","388","2.1.0","553584","J=YES, F=NO","tk13x4ox1y","1","69","63","75","","","","","","","","","","","","","","","",""
"null","audio/beep-329314.mp3","null","audio-keyboard-response","389","2.1.0","555118","J=YES, F=NO","tk13x4ox1y","1","69","63","75","","","","","","","","","","","","","","","",""
"null","audio/beach1.wav","null","audio-keyboard-response","390","2.1.0","555727","J=YES, F=NO","tk13x4ox1y","1","69","63","75","","","","","","","","","","","","","","","",""
"504","
          <p id=""word"" style=""font-size: 40px;"">drive</p>
          <p style=""font-size: 16px;"">J = YES &nbsp;&nbsp;&nbsp; F = NO</p>
        ","j","html-keyboard-response","391","2.1.0","556232","J=YES, F=NO","tk13x4ox1y","1","69","63","75","","","","","","","","","drive","beach1","filler","filler","j","true","",""
