"rt","stimulus","response","trial_type","trial_index","plugin_version","time_elapsed","response_mapping","subject_id","list_index","lextale_score","lextale_word_score","lextale_nonword_score","success","timeout","failed_images","failed_audio","failed_video","task","isWord","isDummy","target","prime","prime_type","stimulus_type","correct_response","correct","section","question_order"
"24225","
    <div style=""max-width: 800px; margin: auto; text-align: left;"">
      <h2>STANFORD UNIVERSITY</h2>
      <h3>Research Information Sheet</h3>
      <p><strong>Protocol Director:</strong> Robert Hawkins<br>
      <strong>Protocol Title:</strong> Communication and social cognition in natural audiovisual contexts<br>
      <strong>IRB#:</strong> 77226</p>

      <p><strong>DESCRIPTION:</strong> You are invited to participate in a research study about language and communication. The purpose of the research is to understand how you interact and communicate with other people in naturalistic settings as a fluent English speaker. This research will be conducted through the Prolific platform, including participants from the US, UK, and Canada. If you decide to participate in this research, you will play a communication game in a group with one or more partners.</p>

      <p><strong>TIME INVOLVEMENT:</strong> The task will last the amount of time advertised on Prolific. You are free to withdraw from the study at any time.</p>

      <p><strong>RISKS AND BENEFITS:</strong> You may become frustrated if your partner gets distracted, or experience discomfort if other participants in your group send text that is inappropriate for the task. We ask you to please be respectful of other participants you might be interacting with to mitigate these risks. You may also experience discomfort when being asked to discuss or challenge emotionally salient political beliefs. Study data will be stored securely, in compliance with Stanford University standards, minimizing the risk of confidentiality breach. This study advances our scientific understanding of how people communicate and collaborate in naturalistic settings. This study may lead to further insights about what can go wrong in teamwork, suggest potential interventions to overcome these barriers, and help to develop assistive technologies that collaborate with human partners. We cannot and do not guarantee or promise that you will receive any benefits from this study.</p>

      <p><strong>PAYMENTS:</strong> You will receive payment in the amount advertised on Prolific. If you do not complete this study, you will receive prorated payment based on the time that you have spent. Additionally, you may be eligible for bonus payments as described in the instructions.</p>

      <p><strong>PARTICIPANT’S RIGHTS:</strong> If you have read this form and have decided to participate in this project, please understand your participation is voluntary and you have the right to withdraw your consent or discontinue participation at any time without penalty or loss of benefits to which you are otherwise entitled. The alternative is not to participate. You have the right to refuse to answer particular questions. The results of this research study may be presented at scientific or professional meetings or published in scientific journals. Your individual privacy will be maintained in all published and written data resulting from the study. In accordance with scientific norms, the data from this study may be used or shared with other researchers for future research (after removing personally identifying information) without additional consent from you.</p>

      <p><strong>CONTACT INFORMATION:</strong><br>
      Questions: If you have any questions, concerns or complaints about this research, its procedures, risks and benefits, contact the Protocol Director, Robert Hawkins (<a href=""mailto:rdhawkins@stanford.edu"">rdhawkins@stanford.edu</a>, 217-549-6923).<br>
      Independent Contact: If you are not satisfied with how this study is being conducted, or if you have any concerns, complaints, or general questions about the research or your rights as a participant, please contact the Stanford Institutional Review Board (IRB) to speak to someone independent of the research team at 650-723-2480 or toll free at 1-866-680-2906, or email at <a href=""mailto:irbnon-med@stanford.edu"">irbnon-med@stanford.edu</a>. You can also write to the Stanford IRB, Stanford University, 1705 El Camino Real, Palo Alto, CA 94306.</p>

      <p><strong>Please save or print a copy of this page for your records.</strong></p>
      <p>If you agree to participate in this research, click ""Continue"" below.</p>
    </div>
  ","0","html-button-response","0","2.1.0","24230","F=YES, J=NO","ts3x1u1azq","0","85","85","85","","","","","","","","","","","","","","","",""
"35971","
    <div style=""max-width: 800px; margin: auto; text-align: left;"">
      <h2>Welcome!</h2>
      <p>Thank you for participating in this study. The experiment consists of three parts:</p>
      <ol>
        <li>An English vocabulary test</li>
        <li>A main task in which you will hear and see words, and decide whether the written word is a real English word</li>
        <li>A brief survey about your background</li>
      </ol>
      <p>Each part will be introduced before it begins.</p>
      <p>Please make sure you are in a quiet environment and can hear audio clearly for the final task.</p>
      <p style=""margin-top: 2em;"">Press any key to begin.</p>
    </div>
  ","Enter","html-keyboard-response","1","2.1.0","60203","F=YES, J=NO","ts3x1u1azq","0","85","85","85","","","","","","","","","","","","","","","",""
"","","","preload","2","2.1.0","60648","F=YES, J=NO","ts3x1u1azq","0","85","85","85","true","false","[]","[]","[]","","","","","","","","","","",""
"77106","
    <div style=""max-width: 800px; margin: auto; text-align: left;"">
      <h2>Part 1: Vocabulary Test</h2>
      <p>You will now complete the first part of the study: a short English vocabulary test.</p>
      <p>This test is called <strong>LexTALE</strong> and helps us get a general sense of your English proficiency.</p>
      <p style=""margin-top: 2em;"">Press any key to continue.</p>
    </div>
  ","Enter","html-keyboard-response","3","2.1.0","137759","F=YES, J=NO","ts3x1u1azq","0","85","85","85","","","","","","","","","","","","","","","",""
"21921","
    <div style=""max-width: 800px; margin: auto; text-align: left;"">
      <h2>LexTALE Vocabulary Test</h2>
      <p>In this test, you will see a series of letter strings—one at a time.</p>
      <p>Your task is to decide whether each string is a real English word.</p>
      <p><strong>Key responses:</strong></p>
      <ul>
        <li><strong>F</strong> = YES (real English word)</li>
        <li><strong>J</strong> = NO (not a real English word)</li>
      </ul>
      <p>There is no time limit, but please try to be accurate.</p>
      <p style=""margin-top: 2em;"">Press any key to begin.</p>
    </div>
  ","Enter","html-keyboard-response","4","2.1.0","159681","F=YES, J=NO","ts3x1u1azq","0","85","85","85","","","","","","","","","","","","","","","",""
"3337","
  <p style=""font-size: 40px;"">platery</p>
  <p style=""font-size: 16px;"">F = YES &nbsp;&nbsp;&nbsp; J = NO</p>
","f","html-keyboard-response","5","2.1.0","163018","F=YES, J=NO","ts3x1u1azq","0","85","85","85","","","","","","lextale","false","true","","","","","","","",""
"2299","
  <p style=""font-size: 40px;"">denial</p>
  <p style=""font-size: 16px;"">F = YES &nbsp;&nbsp;&nbsp; J = NO</p>
","f","html-keyboard-response","6","2.1.0","165318","F=YES, J=NO","ts3x1u1azq","0","85","85","85","","","","","","lextale","true","true","","","","","","","",""
"18144","
  <p style=""font-size: 40px;"">marrit</p>
  <p style=""font-size: 16px;"">F = YES &nbsp;&nbsp;&nbsp; J = NO</p>
","j","html-keyboard-response","7","2.1.0","183462","F=YES, J=NO","ts3x1u1azq","0","85","85","85","","","","","","lextale","false","true","","","","","","","",""
"1892","
  <p style=""font-size: 40px;"">bottle</p>
  <p style=""font-size: 16px;"">F = YES &nbsp;&nbsp;&nbsp; J = NO</p>
","f","html-keyboard-response","8","2.1.0","185354","F=YES, J=NO","ts3x1u1azq","0","85","85","85","","","","","","lextale","true","false","","","","","","","",""
"12054","
  <p style=""font-size: 40px;"">birst</p>
  <p style=""font-size: 16px;"">F = YES &nbsp;&nbsp;&nbsp; J = NO</p>
","j","html-keyboard-response","9","2.1.0","197408","F=YES, J=NO","ts3x1u1azq","0","85","85","85","","","","","","lextale","false","false","","","","","","","",""
"4920","
  <p style=""font-size: 40px;"">envy</p>
  <p style=""font-size: 16px;"">F = YES &nbsp;&nbsp;&nbsp; J = NO</p>
","f","html-keyboard-response","10","2.1.0","202328","F=YES, J=NO","ts3x1u1azq","0","85","85","85","","","","","","lextale","true","false","","","","","","","",""
"9250","
  <p style=""font-size: 40px;"">brang</p>
  <p style=""font-size: 16px;"">F = YES &nbsp;&nbsp;&nbsp; J = NO</p>
","j","html-keyboard-response","11","2.1.0","211579","F=YES, J=NO","ts3x1u1azq","0","85","85","85","","","","","","lextale","false","false","","","","","","","",""
"1784","
  <p style=""font-size: 40px;"">huge</p>
  <p style=""font-size: 16px;"">F = YES &nbsp;&nbsp;&nbsp; J = NO</p>
","f","html-keyboard-response","12","2.1.0","213366","F=YES, J=NO","ts3x1u1azq","0","85","85","85","","","","","","lextale","true","false","","","","","","","",""
"6915","
  <p style=""font-size: 40px;"">plove</p>
  <p style=""font-size: 16px;"">F = YES &nbsp;&nbsp;&nbsp; J = NO</p>
","j","html-keyboard-response","13","2.1.0","220284","F=YES, J=NO","ts3x1u1azq","0","85","85","85","","","","","","lextale","false","false","","","","","","","",""
"1500","
  <p style=""font-size: 40px;"">border</p>
  <p style=""font-size: 16px;"">F = YES &nbsp;&nbsp;&nbsp; J = NO</p>
","f","html-keyboard-response","14","2.1.0","221786","F=YES, J=NO","ts3x1u1azq","0","85","85","85","","","","","","lextale","true","false","","","","","","","",""
"8557","
  <p style=""font-size: 40px;"">flimsy</p>
  <p style=""font-size: 16px;"">F = YES &nbsp;&nbsp;&nbsp; J = NO</p>
","f","html-keyboard-response","15","2.1.0","230347","F=YES, J=NO","ts3x1u1azq","0","85","85","85","","","","","","lextale","true","false","","","","","","","",""
"3848","
  <p style=""font-size: 40px;"">drain</p>
  <p style=""font-size: 16px;"">F = YES &nbsp;&nbsp;&nbsp; J = NO</p>
","f","html-keyboard-response","16","2.1.0","234198","F=YES, J=NO","ts3x1u1azq","0","85","85","85","","","","","","lextale","true","false","","","","","","","",""
"6209","
  <p style=""font-size: 40px;"">twindle</p>
  <p style=""font-size: 16px;"">F = YES &nbsp;&nbsp;&nbsp; J = NO</p>
","j","html-keyboard-response","17","2.1.0","240409","F=YES, J=NO","ts3x1u1azq","0","85","85","85","","","","","","lextale","false","false","","","","","","","",""
"2195","
  <p style=""font-size: 40px;"">propose</p>
  <p style=""font-size: 16px;"">F = YES &nbsp;&nbsp;&nbsp; J = NO</p>
","f","html-keyboard-response","18","2.1.0","242607","F=YES, J=NO","ts3x1u1azq","0","85","85","85","","","","","","lextale","true","false","","","","","","","",""
"6624","
  <p style=""font-size: 40px;"">forlay</p>
  <p style=""font-size: 16px;"">F = YES &nbsp;&nbsp;&nbsp; J = NO</p>
","j","html-keyboard-response","19","2.1.0","249231","F=YES, J=NO","ts3x1u1azq","0","85","85","85","","","","","","lextale","false","false","","","","","","","",""
"10146","
  <p style=""font-size: 40px;"">tenant</p>
  <p style=""font-size: 16px;"">F = YES &nbsp;&nbsp;&nbsp; J = NO</p>
","f","html-keyboard-response","20","2.1.0","259380","F=YES, J=NO","ts3x1u1azq","0","85","85","85","","","","","","lextale","true","false","","","","","","","",""
"2879","
  <p style=""font-size: 40px;"">strain</p>
  <p style=""font-size: 16px;"">F = YES &nbsp;&nbsp;&nbsp; J = NO</p>
","f","html-keyboard-response","21","2.1.0","262261","F=YES, J=NO","ts3x1u1azq","0","85","85","85","","","","","","lextale","true","false","","","","","","","",""
"10079","
  <p style=""font-size: 40px;"">holster</p>
  <p style=""font-size: 16px;"">F = YES &nbsp;&nbsp;&nbsp; J = NO</p>
","f","html-keyboard-response","22","2.1.0","272343","F=YES, J=NO","ts3x1u1azq","0","85","85","85","","","","","","lextale","true","false","","","","","","","",""
"7926","
  <p style=""font-size: 40px;"">hinder</p>
  <p style=""font-size: 16px;"">F = YES &nbsp;&nbsp;&nbsp; J = NO</p>
","f","html-keyboard-response","23","2.1.0","280272","F=YES, J=NO","ts3x1u1azq","0","85","85","85","","","","","","lextale","true","false","","","","","","","",""
"6335","
  <p style=""font-size: 40px;"">swindle</p>
  <p style=""font-size: 16px;"">F = YES &nbsp;&nbsp;&nbsp; J = NO</p>
","f","html-keyboard-response","24","2.1.0","286608","F=YES, J=NO","ts3x1u1azq","0","85","85","85","","","","","","lextale","true","false","","","","","","","",""
"6294","
  <p style=""font-size: 40px;"">nuder</p>
  <p style=""font-size: 16px;"">F = YES &nbsp;&nbsp;&nbsp; J = NO</p>
","j","html-keyboard-response","25","2.1.0","292904","F=YES, J=NO","ts3x1u1azq","0","85","85","85","","","","","","lextale","false","false","","","","","","","",""
"2082","
  <p style=""font-size: 40px;"">pillow</p>
  <p style=""font-size: 16px;"">F = YES &nbsp;&nbsp;&nbsp; J = NO</p>
","f","html-keyboard-response","26","2.1.0","294988","F=YES, J=NO","ts3x1u1azq","0","85","85","85","","","","","","lextale","true","false","","","","","","","",""
"8114","
  <p style=""font-size: 40px;"">shumble</p>
  <p style=""font-size: 16px;"">F = YES &nbsp;&nbsp;&nbsp; J = NO</p>
","j","html-keyboard-response","27","2.1.0","303104","F=YES, J=NO","ts3x1u1azq","0","85","85","85","","","","","","lextale","false","false","","","","","","","",""
"11352","
  <p style=""font-size: 40px;"">thirst</p>
  <p style=""font-size: 16px;"">F = YES &nbsp;&nbsp;&nbsp; J = NO</p>
","f","html-keyboard-response","28","2.1.0","314457","F=YES, J=NO","ts3x1u1azq","0","85","85","85","","","","","","lextale","true","false","","","","","","","",""
"6404","
  <p style=""font-size: 40px;"">unsail</p>
  <p style=""font-size: 16px;"">F = YES &nbsp;&nbsp;&nbsp; J = NO</p>
","j","html-keyboard-response","29","2.1.0","320862","F=YES, J=NO","ts3x1u1azq","0","85","85","85","","","","","","lextale","false","false","","","","","","","",""
"11600","
  <p style=""font-size: 40px;"">rifle</p>
  <p style=""font-size: 16px;"">F = YES &nbsp;&nbsp;&nbsp; J = NO</p>
","f","html-keyboard-response","30","2.1.0","332465","F=YES, J=NO","ts3x1u1azq","0","85","85","85","","","","","","lextale","true","false","","","","","","","",""
"6736","
  <p style=""font-size: 40px;"">mush</p>
  <p style=""font-size: 16px;"">F = YES &nbsp;&nbsp;&nbsp; J = NO</p>
","f","html-keyboard-response","31","2.1.0","339202","F=YES, J=NO","ts3x1u1azq","0","85","85","85","","","","","","lextale","false","false","","","","","","","",""
"8163","
  <p style=""font-size: 40px;"">drench</p>
  <p style=""font-size: 16px;"">F = YES &nbsp;&nbsp;&nbsp; J = NO</p>
","f","html-keyboard-response","32","2.1.0","347366","F=YES, J=NO","ts3x1u1azq","0","85","85","85","","","","","","lextale","true","false","","","","","","","",""
"6004","
  <p style=""font-size: 40px;"">snirt</p>
  <p style=""font-size: 16px;"">F = YES &nbsp;&nbsp;&nbsp; J = NO</p>
","j","html-keyboard-response","33","2.1.0","353373","F=YES, J=NO","ts3x1u1azq","0","85","85","85","","","","","","lextale","false","false","","","","","","","",""
"1811","
  <p style=""font-size: 40px;"">bitter</p>
  <p style=""font-size: 16px;"">F = YES &nbsp;&nbsp;&nbsp; J = NO</p>
","f","html-keyboard-response","34","2.1.0","355184","F=YES, J=NO","ts3x1u1azq","0","85","85","85","","","","","","lextale","true","false","","","","","","","",""
"6845","
  <p style=""font-size: 40px;"">pliff</p>
  <p style=""font-size: 16px;"">F = YES &nbsp;&nbsp;&nbsp; J = NO</p>
","j","html-keyboard-response","35","2.1.0","362031","F=YES, J=NO","ts3x1u1azq","0","85","85","85","","","","","","lextale","false","false","","","","","","","",""
"1811","
  <p style=""font-size: 40px;"">tablet</p>
  <p style=""font-size: 16px;"">F = YES &nbsp;&nbsp;&nbsp; J = NO</p>
","f","html-keyboard-response","36","2.1.0","363843","F=YES, J=NO","ts3x1u1azq","0","85","85","85","","","","","","lextale","true","false","","","","","","","",""
"7315","
  <p style=""font-size: 40px;"">glimmer</p>
  <p style=""font-size: 16px;"">F = YES &nbsp;&nbsp;&nbsp; J = NO</p>
","f","html-keyboard-response","37","2.1.0","371160","F=YES, J=NO","ts3x1u1azq","0","85","85","85","","","","","","lextale","true","false","","","","","","","",""
"5932","
  <p style=""font-size: 40px;"">slink</p>
  <p style=""font-size: 16px;"">F = YES &nbsp;&nbsp;&nbsp; J = NO</p>
","f","html-keyboard-response","38","2.1.0","377094","F=YES, J=NO","ts3x1u1azq","0","85","85","85","","","","","","lextale","true","false","","","","","","","",""
"1457","
  <p style=""font-size: 40px;"">clever</p>
  <p style=""font-size: 16px;"">F = YES &nbsp;&nbsp;&nbsp; J = NO</p>
","f","html-keyboard-response","39","2.1.0","378552","F=YES, J=NO","ts3x1u1azq","0","85","85","85","","","","","","lextale","true","false","","","","","","","",""
"5802","
  <p style=""font-size: 40px;"">grum</p>
  <p style=""font-size: 16px;"">F = YES &nbsp;&nbsp;&nbsp; J = NO</p>
","j","html-keyboard-response","40","2.1.0","384356","F=YES, J=NO","ts3x1u1azq","0","85","85","85","","","","","","lextale","false","false","","","","","","","",""
"2918","
  <p style=""font-size: 40px;"">string</p>
  <p style=""font-size: 16px;"">F = YES &nbsp;&nbsp;&nbsp; J = NO</p>
","f","html-keyboard-response","41","2.1.0","387276","F=YES, J=NO","ts3x1u1azq","0","85","85","85","","","","","","lextale","true","false","","","","","","","",""
"5680","
  <p style=""font-size: 40px;"">plim</p>
  <p style=""font-size: 16px;"">F = YES &nbsp;&nbsp;&nbsp; J = NO</p>
","j","html-keyboard-response","42","2.1.0","392959","F=YES, J=NO","ts3x1u1azq","0","85","85","85","","","","","","lextale","false","false","","","","","","","",""
"1369","
  <p style=""font-size: 40px;"">cable</p>
  <p style=""font-size: 16px;"">F = YES &nbsp;&nbsp;&nbsp; J = NO</p>
","f","html-keyboard-response","43","2.1.0","394330","F=YES, J=NO","ts3x1u1azq","0","85","85","85","","","","","","lextale","true","false","","","","","","","",""
"6330","
  <p style=""font-size: 40px;"">shrivel</p>
  <p style=""font-size: 16px;"">F = YES &nbsp;&nbsp;&nbsp; J = NO</p>
","f","html-keyboard-response","44","2.1.0","400662","F=YES, J=NO","ts3x1u1azq","0","85","85","85","","","","","","lextale","true","false","","","","","","","",""
"6862","
  <p style=""font-size: 40px;"">tarnish</p>
  <p style=""font-size: 16px;"">F = YES &nbsp;&nbsp;&nbsp; J = NO</p>
","f","html-keyboard-response","45","2.1.0","407526","F=YES, J=NO","ts3x1u1azq","0","85","85","85","","","","","","lextale","true","false","","","","","","","",""
"5357","
  <p style=""font-size: 40px;"">blim</p>
  <p style=""font-size: 16px;"">F = YES &nbsp;&nbsp;&nbsp; J = NO</p>
","j","html-keyboard-response","46","2.1.0","412885","F=YES, J=NO","ts3x1u1azq","0","85","85","85","","","","","","lextale","false","false","","","","","","","",""
"5582","
  <p style=""font-size: 40px;"">stifle</p>
  <p style=""font-size: 16px;"">F = YES &nbsp;&nbsp;&nbsp; J = NO</p>
","f","html-keyboard-response","47","2.1.0","418468","F=YES, J=NO","ts3x1u1azq","0","85","85","85","","","","","","lextale","true","false","","","","","","","",""
"5055","
  <p style=""font-size: 40px;"">bint</p>
  <p style=""font-size: 16px;"">F = YES &nbsp;&nbsp;&nbsp; J = NO</p>
","f","html-keyboard-response","48","2.1.0","423524","F=YES, J=NO","ts3x1u1azq","0","85","85","85","","","","","","lextale","false","false","","","","","","","",""
"1352","
  <p style=""font-size: 40px;"">purple</p>
  <p style=""font-size: 16px;"">F = YES &nbsp;&nbsp;&nbsp; J = NO</p>
","f","html-keyboard-response","49","2.1.0","424879","F=YES, J=NO","ts3x1u1azq","0","85","85","85","","","","","","lextale","true","false","","","","","","","",""
"4934","
  <p style=""font-size: 40px;"">wriggle</p>
  <p style=""font-size: 16px;"">F = YES &nbsp;&nbsp;&nbsp; J = NO</p>
","f","html-keyboard-response","50","2.1.0","429814","F=YES, J=NO","ts3x1u1azq","0","85","85","85","","","","","","lextale","true","false","","","","","","","",""
"4678","
  <p style=""font-size: 40px;"">mangle</p>
  <p style=""font-size: 16px;"">F = YES &nbsp;&nbsp;&nbsp; J = NO</p>
","f","html-keyboard-response","51","2.1.0","434493","F=YES, J=NO","ts3x1u1azq","0","85","85","85","","","","","","lextale","true","false","","","","","","","",""
"5901","
  <p style=""font-size: 40px;"">shramp</p>
  <p style=""font-size: 16px;"">F = YES &nbsp;&nbsp;&nbsp; J = NO</p>
","j","html-keyboard-response","52","2.1.0","440394","F=YES, J=NO","ts3x1u1azq","0","85","85","85","","","","","","lextale","false","false","","","","","","","",""
"2615","
  <p style=""font-size: 40px;"">flirt</p>
  <p style=""font-size: 16px;"">F = YES &nbsp;&nbsp;&nbsp; J = NO</p>
","f","html-keyboard-response","53","2.1.0","443009","F=YES, J=NO","ts3x1u1azq","0","85","85","85","","","","","","lextale","true","false","","","","","","","",""
"4784","
  <p style=""font-size: 40px;"">frip</p>
  <p style=""font-size: 16px;"">F = YES &nbsp;&nbsp;&nbsp; J = NO</p>
","j","html-keyboard-response","54","2.1.0","447793","F=YES, J=NO","ts3x1u1azq","0","85","85","85","","","","","","lextale","false","false","","","","","","","",""
"4820","
  <p style=""font-size: 40px;"">tangle</p>
  <p style=""font-size: 16px;"">F = YES &nbsp;&nbsp;&nbsp; J = NO</p>
","f","html-keyboard-response","55","2.1.0","452614","F=YES, J=NO","ts3x1u1azq","0","85","85","85","","","","","","lextale","true","false","","","","","","","",""
"1249","
  <p style=""font-size: 40px;"">crumble</p>
  <p style=""font-size: 16px;"">F = YES &nbsp;&nbsp;&nbsp; J = NO</p>
","f","html-keyboard-response","56","2.1.0","453865","F=YES, J=NO","ts3x1u1azq","0","85","85","85","","","","","","lextale","true","false","","","","","","","",""
"6419","
  <p style=""font-size: 40px;"">wrinkle</p>
  <p style=""font-size: 16px;"">F = YES &nbsp;&nbsp;&nbsp; J = NO</p>
","f","html-keyboard-response","57","2.1.0","460287","F=YES, J=NO","ts3x1u1azq","0","85","85","85","","","","","","lextale","true","false","","","","","","","",""
"5842","
  <p style=""font-size: 40px;"">slumb</p>
  <p style=""font-size: 16px;"">F = YES &nbsp;&nbsp;&nbsp; J = NO</p>
","j","html-keyboard-response","58","2.1.0","466131","F=YES, J=NO","ts3x1u1azq","0","85","85","85","","","","","","lextale","false","false","","","","","","","",""
"1434","
  <p style=""font-size: 40px;"">jungle</p>
  <p style=""font-size: 16px;"">F = YES &nbsp;&nbsp;&nbsp; J = NO</p>
","f","html-keyboard-response","59","2.1.0","467567","F=YES, J=NO","ts3x1u1azq","0","85","85","85","","","","","","lextale","true","false","","","","","","","",""
"7173","
  <p style=""font-size: 40px;"">frolick</p>
  <p style=""font-size: 16px;"">F = YES &nbsp;&nbsp;&nbsp; J = NO</p>
","j","html-keyboard-response","60","2.1.0","474742","F=YES, J=NO","ts3x1u1azq","0","85","85","85","","","","","","lextale","false","false","","","","","","","",""
"8737","
      <h2>LexTALE Test Completed</h2>
      <p>Your LexTALE vocabulary score is: <strong>85%</strong></p>
      <p>Press any key to continue.</p>
    "," ","html-keyboard-response","61","2.1.0","483484","F=YES, J=NO","ts3x1u1azq","0","85","85","85","","","","","","","","","","","","","","","",""
"20340","
    <div style=""max-width: 800px; margin: auto; text-align: left;"">
      <h2>Break Time</h2>
      <p>You have completed the first part of the study.</p>
      <p>You may take a short <strong>30-second break</strong> before continuing.</p>
      <p>When you’re ready, press any key to continue to the final task.</p>
    </div>
  "," ","html-keyboard-response","62","2.1.0","503826","F=YES, J=NO","ts3x1u1azq","0","85","85","85","","","","","","","","","","","","","","","",""
"26004","
    <div style=""max-width: 800px; margin: auto; text-align: left;"">
      <h2>Part 2: Lexical Decision Task</h2>
      <p>You will now begin the second part of the study.</p>
      <p>Each trial will follow this sequence:</p>
      <ul>
        <li>A fixation cross (+) appears at the center of the screen.</li>
        <li>You will hear a short beep followed by a spoken word.</li>
        <li>A written word will appear briefly on the screen.</li>
      </ul>
      <p>Your task is to judge whether the <strong>written word</strong> is a real English word.</p>
      <p style=""margin-top: 1em;""><strong>Key responses:</strong></p>
      <ul>
        <li><strong>F</strong> = YES (real English word)</li>
        <li><strong>J</strong> = NO (not a real English word)</li>
      </ul>
      <p>Please respond as quickly and accurately as you can.</p>
      <p style=""margin-top: 2em;"">Press any key to continue.</p>
    </div>
  "," ","html-keyboard-response","63","2.1.0","529833","F=YES, J=NO","ts3x1u1azq","0","85","85","85","","","","","","","","","","","","","","","",""
"9316","
    <div style=""max-width: 800px; margin: auto; text-align: left;"">
      <h2>Before You Begin</h2>
      <p>Make sure your sound is turned on.</p>
      <p>You will hear audio during each trial, but your decision should be based only on the <strong>written word</strong> you see on the screen.</p>
      <p><strong>Reminder:</strong></p>
      <ul>
        <li><strong>F</strong> = YES (real English word)</li>
        <li><strong>J</strong> = NO (not a real English word)</li>
      </ul>
      <p style=""margin-top: 2em;"">Press any key when you are ready to begin.</p>
    </div>
  "," ","html-keyboard-response","64","2.1.0","539152","F=YES, J=NO","ts3x1u1azq","0","85","85","85","","","","","","","","","","","","","","","",""
"8854","
    <div style=""max-width: 800px; margin: auto; text-align: left;"">
      <h2>Part 2: Practice Trials</h2>
      <p>You will now complete a few <strong>practice trials</strong> to get familiar with the task.</p>
      <p>These trials are <strong>not scored</strong> and are only to help you get used to the format.</p>
      <p style=""margin-top: 2em;"">Press any key to begin.</p>
    </div>
  "," ","html-keyboard-response","65","2.1.0","548009","F=YES, J=NO","ts3x1u1azq","0","85","85","85","","","","","","","","","","","","","","","",""
"3805","<p>Starting practice block 1 of 2. Press any key to continue.</p>"," ","html-keyboard-response","66","2.1.0","551816","F=YES, J=NO","ts3x1u1azq","0","85","85","85","","","","","","","","","","","","","","","",""
"null","<p style=""font-size: 50px;"">+</p>","null","html-keyboard-response","67","2.1.0","552124","F=YES, J=NO","ts3x1u1azq","0","85","85","85","","","","","","","","","","","","","","","",""
"null","audio/beep-329314.mp3","null","audio-keyboard-response","68","2.1.0","553922","F=YES, J=NO","ts3x1u1azq","0","85","85","85","","","","","","","","","","","","","","","",""
"null","audio/bridge.wav","null","audio-keyboard-response","69","2.1.0","554511","F=YES, J=NO","ts3x1u1azq","0","85","85","85","","","","","","","","","","","","","","","",""
"null","
          <p id=""word"" style=""font-size: 40px;"">crack</p>
          <p style=""font-size: 16px;"">F = YES &nbsp;&nbsp;&nbsp; J = NO</p>
        ","null","html-keyboard-response","70","2.1.0","556024","F=YES, J=NO","ts3x1u1azq","0","85","85","85","","","","","","","","","crack","bridge","filler","filler","f","false","",""
"null","<p style=""font-size: 50px;"">+</p>","null","html-keyboard-response","71","2.1.0","556336","F=YES, J=NO","ts3x1u1azq","0","85","85","85","","","","","","","","","","","","","","","",""
"null","audio/beep-329314.mp3","null","audio-keyboard-response","72","2.1.0","557862","F=YES, J=NO","ts3x1u1azq","0","85","85","85","","","","","","","","","","","","","","","",""
"null","audio/cash1.wav","null","audio-keyboard-response","73","2.1.0","558450","F=YES, J=NO","ts3x1u1azq","0","85","85","85","","","","","","","","","","","","","","","",""
"1065","
          <p id=""word"" style=""font-size: 40px;"">splear</p>
          <p style=""font-size: 16px;"">F = YES &nbsp;&nbsp;&nbsp; J = NO</p>
        ","j","html-keyboard-response","74","2.1.0","559517","F=YES, J=NO","ts3x1u1azq","0","85","85","85","","","","","","","","","splear","cash1","pseudoword","pseudoword","j","true","",""
"null","<p style=""font-size: 50px;"">+</p>","null","html-keyboard-response","75","2.1.0","559822","F=YES, J=NO","ts3x1u1azq","0","85","85","85","","","","","","","","","","","","","","","",""
"null","audio/beep-329314.mp3","null","audio-keyboard-response","76","2.1.0","561362","F=YES, J=NO","ts3x1u1azq","0","85","85","85","","","","","","","","","","","","","","","",""
"null","audio/pattern.wav","null","audio-keyboard-response","77","2.1.0","562031","F=YES, J=NO","ts3x1u1azq","0","85","85","85","","","","","","","","","","","","","","","",""
"1033","
          <p id=""word"" style=""font-size: 40px;"">tug</p>
          <p style=""font-size: 16px;"">F = YES &nbsp;&nbsp;&nbsp; J = NO</p>
        ","j","html-keyboard-response","78","2.1.0","563066","F=YES, J=NO","ts3x1u1azq","0","85","85","85","","","","","","","","","tug","pattern","filler","filler","f","false","",""
"null","<p style=""font-size: 50px;"">+</p>","null","html-keyboard-response","79","2.1.0","563383","F=YES, J=NO","ts3x1u1azq","0","85","85","85","","","","","","","","","","","","","","","",""
"null","audio/beep-329314.mp3","null","audio-keyboard-response","80","2.1.0","564922","F=YES, J=NO","ts3x1u1azq","0","85","85","85","","","","","","","","","","","","","","","",""
"null","audio/smirk1.wav","null","audio-keyboard-response","81","2.1.0","565691","F=YES, J=NO","ts3x1u1azq","0","85","85","85","","","","","","","","","","","","","","","",""
"1003","
          <p id=""word"" style=""font-size: 40px;"">snopt</p>
          <p style=""font-size: 16px;"">F = YES &nbsp;&nbsp;&nbsp; J = NO</p>
        ","j","html-keyboard-response","82","2.1.0","566696","F=YES, J=NO","ts3x1u1azq","0","85","85","85","","","","","","","","","snopt","smirk1","pseudoword","pseudoword","j","true","",""
"null","<p style=""font-size: 50px;"">+</p>","null","html-keyboard-response","83","2.1.0","567001","F=YES, J=NO","ts3x1u1azq","0","85","85","85","","","","","","","","","","","","","","","",""
"null","audio/beep-329314.mp3","null","audio-keyboard-response","84","2.1.0","568542","F=YES, J=NO","ts3x1u1azq","0","85","85","85","","","","","","","","","","","","","","","",""
"null","audio/butter1.wav","null","audio-keyboard-response","85","2.1.0","569131","F=YES, J=NO","ts3x1u1azq","0","85","85","85","","","","","","","","","","","","","","","",""
"922","
          <p id=""word"" style=""font-size: 40px;"">chew</p>
          <p style=""font-size: 16px;"">F = YES &nbsp;&nbsp;&nbsp; J = NO</p>
        ","f","html-keyboard-response","86","2.1.0","570055","F=YES, J=NO","ts3x1u1azq","0","85","85","85","","","","","","","","","chew","butter1","filler","filler","f","true","",""
"null","<p style=""font-size: 50px;"">+</p>","null","html-keyboard-response","87","2.1.0","570366","F=YES, J=NO","ts3x1u1azq","0","85","85","85","","","","","","","","","","","","","","","",""
"null","audio/beep-329314.mp3","null","audio-keyboard-response","88","2.1.0","571902","F=YES, J=NO","ts3x1u1azq","0","85","85","85","","","","","","","","","","","","","","","",""
"null","audio/menu.wav","null","audio-keyboard-response","89","2.1.0","572631","F=YES, J=NO","ts3x1u1azq","0","85","85","85","","","","","","","","","","","","","","","",""
"877","
          <p id=""word"" style=""font-size: 40px;"">slice</p>
          <p style=""font-size: 16px;"">F = YES &nbsp;&nbsp;&nbsp; J = NO</p>
        ","f","html-keyboard-response","90","2.1.0","573510","F=YES, J=NO","ts3x1u1azq","0","85","85","85","","","","","","","","","slice","menu","filler","filler","f","true","",""
"null","<p style=""font-size: 50px;"">+</p>","null","html-keyboard-response","91","2.1.0","573819","F=YES, J=NO","ts3x1u1azq","0","85","85","85","","","","","","","","","","","","","","","",""
"null","audio/beep-329314.mp3","null","audio-keyboard-response","92","2.1.0","575361","F=YES, J=NO","ts3x1u1azq","0","85","85","85","","","","","","","","","","","","","","","",""
"null","audio/fence.wav","null","audio-keyboard-response","93","2.1.0","576032","F=YES, J=NO","ts3x1u1azq","0","85","85","85","","","","","","","","","","","","","","","",""
"824","
          <p id=""word"" style=""font-size: 40px;"">trim</p>
          <p style=""font-size: 16px;"">F = YES &nbsp;&nbsp;&nbsp; J = NO</p>
        ","f","html-keyboard-response","94","2.1.0","576857","F=YES, J=NO","ts3x1u1azq","0","85","85","85","","","","","","","","","trim","fence","filler","filler","f","true","",""
"null","<p style=""font-size: 50px;"">+</p>","null","html-keyboard-response","95","2.1.0","577168","F=YES, J=NO","ts3x1u1azq","0","85","85","85","","","","","","","","","","","","","","","",""
"null","audio/beep-329314.mp3","null","audio-keyboard-response","96","2.1.0","578701","F=YES, J=NO","ts3x1u1azq","0","85","85","85","","","","","","","","","","","","","","","",""
"null","audio/age1.wav","null","audio-keyboard-response","97","2.1.0","579271","F=YES, J=NO","ts3x1u1azq","0","85","85","85","","","","","","","","","","","","","","","",""
"768","
          <p id=""word"" style=""font-size: 40px;"">bake</p>
          <p style=""font-size: 16px;"">F = YES &nbsp;&nbsp;&nbsp; J = NO</p>
        ","f","html-keyboard-response","98","2.1.0","580041","F=YES, J=NO","ts3x1u1azq","0","85","85","85","","","","","","","","","bake","age1","filler","filler","f","true","",""
"null","<p style=""font-size: 50px;"">+</p>","null","html-keyboard-response","99","2.1.0","580345","F=YES, J=NO","ts3x1u1azq","0","85","85","85","","","","","","","","","","","","","","","",""
"null","audio/beep-329314.mp3","null","audio-keyboard-response","100","2.1.0","581880","F=YES, J=NO","ts3x1u1azq","0","85","85","85","","","","","","","","","","","","","","","",""
"null","audio/birth1.wav","null","audio-keyboard-response","101","2.1.0","582431","F=YES, J=NO","ts3x1u1azq","0","85","85","85","","","","","","","","","","","","","","","",""
"765","
          <p id=""word"" style=""font-size: 40px;"">peel</p>
          <p style=""font-size: 16px;"">F = YES &nbsp;&nbsp;&nbsp; J = NO</p>
        ","j","html-keyboard-response","102","2.1.0","583197","F=YES, J=NO","ts3x1u1azq","0","85","85","85","","","","","","","","","peel","birth1","filler","filler","f","false","",""
"null","<p style=""font-size: 50px;"">+</p>","null","html-keyboard-response","103","2.1.0","583503","F=YES, J=NO","ts3x1u1azq","0","85","85","85","","","","","","","","","","","","","","","",""
"null","audio/beep-329314.mp3","null","audio-keyboard-response","104","2.1.0","585041","F=YES, J=NO","ts3x1u1azq","0","85","85","85","","","","","","","","","","","","","","","",""
"null","audio/bush1.wav","null","audio-keyboard-response","105","2.1.0","585651","F=YES, J=NO","ts3x1u1azq","0","85","85","85","","","","","","","","","","","","","","","",""
"951","
          <p id=""word"" style=""font-size: 40px;"">platined</p>
          <p style=""font-size: 16px;"">F = YES &nbsp;&nbsp;&nbsp; J = NO</p>
        ","f","html-keyboard-response","106","2.1.0","586603","F=YES, J=NO","ts3x1u1azq","0","85","85","85","","","","","","","","","platined","bush1","pseudoword","pseudoword","j","false","",""
"null","<p style=""font-size: 50px;"">+</p>","null","html-keyboard-response","107","2.1.0","586905","F=YES, J=NO","ts3x1u1azq","0","85","85","85","","","","","","","","","","","","","","","",""
"null","audio/beep-329314.mp3","null","audio-keyboard-response","108","2.1.0","588442","F=YES, J=NO","ts3x1u1azq","0","85","85","85","","","","","","","","","","","","","","","",""
"null","audio/table1.wav","null","audio-keyboard-response","109","2.1.0","588951","F=YES, J=NO","ts3x1u1azq","0","85","85","85","","","","","","","","","","","","","","","",""
"944","
          <p id=""word"" style=""font-size: 40px;"">stimb</p>
          <p style=""font-size: 16px;"">F = YES &nbsp;&nbsp;&nbsp; J = NO</p>
        ","j","html-keyboard-response","110","2.1.0","589897","F=YES, J=NO","ts3x1u1azq","0","85","85","85","","","","","","","","","stimb","table1","pseudoword","pseudoword","j","true","",""
"null","<p style=""font-size: 50px;"">+</p>","null","html-keyboard-response","111","2.1.0","590212","F=YES, J=NO","ts3x1u1azq","0","85","85","85","","","","","","","","","","","","","","","",""
"null","audio/beep-329314.mp3","null","audio-keyboard-response","112","2.1.0","591741","F=YES, J=NO","ts3x1u1azq","0","85","85","85","","","","","","","","","","","","","","","",""
"null","audio/trout1.wav","null","audio-keyboard-response","113","2.1.0","592470","F=YES, J=NO","ts3x1u1azq","0","85","85","85","","","","","","","","","","","","","","","",""
"809","
          <p id=""word"" style=""font-size: 40px;"">spimt</p>
          <p style=""font-size: 16px;"">F = YES &nbsp;&nbsp;&nbsp; J = NO</p>
        ","j","html-keyboard-response","114","2.1.0","593280","F=YES, J=NO","ts3x1u1azq","0","85","85","85","","","","","","","","","spimt","trout1","pseudoword","pseudoword","j","true","",""
"2277","<p>Starting practice block 2 of 2. Press any key to continue.</p>"," ","html-keyboard-response","115","2.1.0","595559","F=YES, J=NO","ts3x1u1azq","0","85","85","85","","","","","","","","","","","","","","","",""
"null","<p style=""font-size: 50px;"">+</p>","null","html-keyboard-response","116","2.1.0","595873","F=YES, J=NO","ts3x1u1azq","0","85","85","85","","","","","","","","","","","","","","","",""
"null","audio/beep-329314.mp3","null","audio-keyboard-response","117","2.1.0","597402","F=YES, J=NO","ts3x1u1azq","0","85","85","85","","","","","","","","","","","","","","","",""
"null","audio/heart1.wav","null","audio-keyboard-response","118","2.1.0","598071","F=YES, J=NO","ts3x1u1azq","0","85","85","85","","","","","","","","","","","","","","","",""
"824","
          <p id=""word"" style=""font-size: 40px;"">dralm</p>
          <p style=""font-size: 16px;"">F = YES &nbsp;&nbsp;&nbsp; J = NO</p>
        ","j","html-keyboard-response","119","2.1.0","598897","F=YES, J=NO","ts3x1u1azq","0","85","85","85","","","","","","","","","dralm","heart1","pseudoword","pseudoword","j","true","",""
"null","<p style=""font-size: 50px;"">+</p>","null","html-keyboard-response","120","2.1.0","599214","F=YES, J=NO","ts3x1u1azq","0","85","85","85","","","","","","","","","","","","","","","",""
"null","audio/beep-329314.mp3","null","audio-keyboard-response","121","2.1.0","600740","F=YES, J=NO","ts3x1u1azq","0","85","85","85","","","","","","","","","","","","","","","",""
"null","audio/cave1.wav","null","audio-keyboard-response","122","2.1.0","601431","F=YES, J=NO","ts3x1u1azq","0","85","85","85","","","","","","","","","","","","","","","",""
"873","
          <p id=""word"" style=""font-size: 40px;"">blacket</p>
          <p style=""font-size: 16px;"">F = YES &nbsp;&nbsp;&nbsp; J = NO</p>
        ","f","html-keyboard-response","123","2.1.0","602306","F=YES, J=NO","ts3x1u1azq","0","85","85","85","","","","","","","","","blacket","cave1","pseudoword","pseudoword","j","false","",""
"null","<p style=""font-size: 50px;"">+</p>","null","html-keyboard-response","124","2.1.0","602610","F=YES, J=NO","ts3x1u1azq","0","85","85","85","","","","","","","","","","","","","","","",""
"null","audio/beep-329314.mp3","null","audio-keyboard-response","125","2.1.0","604142","F=YES, J=NO","ts3x1u1azq","0","85","85","85","","","","","","","","","","","","","","","",""
"null","audio/tomato.wav","null","audio-keyboard-response","126","2.1.0","604971","F=YES, J=NO","ts3x1u1azq","0","85","85","85","","","","","","","","","","","","","","","",""
"1010","
          <p id=""word"" style=""font-size: 40px;"">gladies</p>
          <p style=""font-size: 16px;"">F = YES &nbsp;&nbsp;&nbsp; J = NO</p>
        ","j","html-keyboard-response","127","2.1.0","605983","F=YES, J=NO","ts3x1u1azq","0","85","85","85","","","","","","","","","gladies","tomato","pseudoword","pseudoword","j","true","",""
"null","<p style=""font-size: 50px;"">+</p>","null","html-keyboard-response","128","2.1.0","606284","F=YES, J=NO","ts3x1u1azq","0","85","85","85","","","","","","","","","","","","","","","",""
"null","audio/beep-329314.mp3","null","audio-keyboard-response","129","2.1.0","607822","F=YES, J=NO","ts3x1u1azq","0","85","85","85","","","","","","","","","","","","","","","",""
"null","audio/relief.wav","null","audio-keyboard-response","130","2.1.0","608631","F=YES, J=NO","ts3x1u1azq","0","85","85","85","","","","","","","","","","","","","","","",""
"1289","
          <p id=""word"" style=""font-size: 40px;"">grigg</p>
          <p style=""font-size: 16px;"">F = YES &nbsp;&nbsp;&nbsp; J = NO</p>
        ","j","html-keyboard-response","131","2.1.0","609922","F=YES, J=NO","ts3x1u1azq","0","85","85","85","","","","","","","","","grigg","relief","pseudoword","pseudoword","j","true","",""
"null","<p style=""font-size: 50px;"">+</p>","null","html-keyboard-response","132","2.1.0","610226","F=YES, J=NO","ts3x1u1azq","0","85","85","85","","","","","","","","","","","","","","","",""
"null","audio/beep-329314.mp3","null","audio-keyboard-response","133","2.1.0","611761","F=YES, J=NO","ts3x1u1azq","0","85","85","85","","","","","","","","","","","","","","","",""
"null","audio/battle1.wav","null","audio-keyboard-response","134","2.1.0","612272","F=YES, J=NO","ts3x1u1azq","0","85","85","85","","","","","","","","","","","","","","","",""
"700","
          <p id=""word"" style=""font-size: 40px;"">boil</p>
          <p style=""font-size: 16px;"">F = YES &nbsp;&nbsp;&nbsp; J = NO</p>
        ","f","html-keyboard-response","135","2.1.0","612974","F=YES, J=NO","ts3x1u1azq","0","85","85","85","","","","","","","","","boil","battle1","filler","filler","f","true","",""
"null","<p style=""font-size: 50px;"">+</p>","null","html-keyboard-response","136","2.1.0","613287","F=YES, J=NO","ts3x1u1azq","0","85","85","85","","","","","","","","","","","","","","","",""
"null","audio/beep-329314.mp3","null","audio-keyboard-response","137","2.1.0","614822","F=YES, J=NO","ts3x1u1azq","0","85","85","85","","","","","","","","","","","","","","","",""
"null","audio/burden.wav","null","audio-keyboard-response","138","2.1.0","615370","F=YES, J=NO","ts3x1u1azq","0","85","85","85","","","","","","","","","","","","","","","",""
"746","
          <p id=""word"" style=""font-size: 40px;"">whotth</p>
          <p style=""font-size: 16px;"">F = YES &nbsp;&nbsp;&nbsp; J = NO</p>
        ","j","html-keyboard-response","139","2.1.0","616117","F=YES, J=NO","ts3x1u1azq","0","85","85","85","","","","","","","","","whotth","burden","pseudoword","pseudoword","j","true","",""
"null","<p style=""font-size: 50px;"">+</p>","null","html-keyboard-response","140","2.1.0","616427","F=YES, J=NO","ts3x1u1azq","0","85","85","85","","","","","","","","","","","","","","","",""
"null","audio/beep-329314.mp3","null","audio-keyboard-response","141","2.1.0","617960","F=YES, J=NO","ts3x1u1azq","0","85","85","85","","","","","","","","","","","","","","","",""
"null","audio/meal.wav","null","audio-keyboard-response","142","2.1.0","618430","F=YES, J=NO","ts3x1u1azq","0","85","85","85","","","","","","","","","","","","","","","",""
"891","
          <p id=""word"" style=""font-size: 40px;"">gallite</p>
          <p style=""font-size: 16px;"">F = YES &nbsp;&nbsp;&nbsp; J = NO</p>
        ","f","html-keyboard-response","143","2.1.0","619322","F=YES, J=NO","ts3x1u1azq","0","85","85","85","","","","","","","","","gallite","meal","pseudoword","pseudoword","j","false","",""
"null","<p style=""font-size: 50px;"">+</p>","null","html-keyboard-response","144","2.1.0","619638","F=YES, J=NO","ts3x1u1azq","0","85","85","85","","","","","","","","","","","","","","","",""
"null","audio/beep-329314.mp3","null","audio-keyboard-response","145","2.1.0","621182","F=YES, J=NO","ts3x1u1azq","0","85","85","85","","","","","","","","","","","","","","","",""
"null","audio/emotion.wav","null","audio-keyboard-response","146","2.1.0","621851","F=YES, J=NO","ts3x1u1azq","0","85","85","85","","","","","","","","","","","","","","","",""
"899","
          <p id=""word"" style=""font-size: 40px;"">devering</p>
          <p style=""font-size: 16px;"">F = YES &nbsp;&nbsp;&nbsp; J = NO</p>
        ","f","html-keyboard-response","147","2.1.0","622753","F=YES, J=NO","ts3x1u1azq","0","85","85","85","","","","","","","","","devering","emotion","pseudoword","pseudoword","j","false","",""
"null","<p style=""font-size: 50px;"">+</p>","null","html-keyboard-response","148","2.1.0","623069","F=YES, J=NO","ts3x1u1azq","0","85","85","85","","","","","","","","","","","","","","","",""
"null","audio/beep-329314.mp3","null","audio-keyboard-response","149","2.1.0","624602","F=YES, J=NO","ts3x1u1azq","0","85","85","85","","","","","","","","","","","","","","","",""
"null","audio/beach1.wav","null","audio-keyboard-response","150","2.1.0","625351","F=YES, J=NO","ts3x1u1azq","0","85","85","85","","","","","","","","","","","","","","","",""
"689","
          <p id=""word"" style=""font-size: 40px;"">drive</p>
          <p style=""font-size: 16px;"">F = YES &nbsp;&nbsp;&nbsp; J = NO</p>
        ","f","html-keyboard-response","151","2.1.0","626042","F=YES, J=NO","ts3x1u1azq","0","85","85","85","","","","","","","","","drive","beach1","filler","filler","f","true","",""
"null","<p style=""font-size: 50px;"">+</p>","null","html-keyboard-response","152","2.1.0","626351","F=YES, J=NO","ts3x1u1azq","0","85","85","85","","","","","","","","","","","","","","","",""
"null","audio/beep-329314.mp3","null","audio-keyboard-response","153","2.1.0","627881","F=YES, J=NO","ts3x1u1azq","0","85","85","85","","","","","","","","","","","","","","","",""
"null","audio/window1.wav","null","audio-keyboard-response","154","2.1.0","628631","F=YES, J=NO","ts3x1u1azq","0","85","85","85","","","","","","","","","","","","","","","",""
"773","
          <p id=""word"" style=""font-size: 40px;"">toss</p>
          <p style=""font-size: 16px;"">F = YES &nbsp;&nbsp;&nbsp; J = NO</p>
        ","f","html-keyboard-response","155","2.1.0","629406","F=YES, J=NO","ts3x1u1azq","0","85","85","85","","","","","","","","","toss","window1","filler","filler","f","true","",""
"null","<p style=""font-size: 50px;"">+</p>","null","html-keyboard-response","156","2.1.0","629719","F=YES, J=NO","ts3x1u1azq","0","85","85","85","","","","","","","","","","","","","","","",""
"null","audio/beep-329314.mp3","null","audio-keyboard-response","157","2.1.0","631262","F=YES, J=NO","ts3x1u1azq","0","85","85","85","","","","","","","","","","","","","","","",""
"null","audio/kettle1.wav","null","audio-keyboard-response","158","2.1.0","631871","F=YES, J=NO","ts3x1u1azq","0","85","85","85","","","","","","","","","","","","","","","",""
"647","
          <p id=""word"" style=""font-size: 40px;"">wrap</p>
          <p style=""font-size: 16px;"">F = YES &nbsp;&nbsp;&nbsp; J = NO</p>
        ","f","html-keyboard-response","159","2.1.0","632520","F=YES, J=NO","ts3x1u1azq","0","85","85","85","","","","","","","","","wrap","kettle1","filler","filler","f","true","",""
"null","<p style=""font-size: 50px;"">+</p>","null","html-keyboard-response","160","2.1.0","632835","F=YES, J=NO","ts3x1u1azq","0","85","85","85","","","","","","","","","","","","","","","",""
"null","audio/beep-329314.mp3","null","audio-keyboard-response","161","2.1.0","634362","F=YES, J=NO","ts3x1u1azq","0","85","85","85","","","","","","","","","","","","","","","",""
"null","audio/floor.wav","null","audio-keyboard-response","162","2.1.0","635051","F=YES, J=NO","ts3x1u1azq","0","85","85","85","","","","","","","","","","","","","","","",""
"803","
          <p id=""word"" style=""font-size: 40px;"">mop</p>
          <p style=""font-size: 16px;"">F = YES &nbsp;&nbsp;&nbsp; J = NO</p>
        ","f","html-keyboard-response","163","2.1.0","635855","F=YES, J=NO","ts3x1u1azq","0","85","85","85","","","","","","","","","mop","floor","filler","filler","f","true","",""
"14215","
    <div style=""max-width: 800px; margin: auto; text-align: left;"">
      <h2>Part 2: Main Trials</h2>
      <p>Great job on the practice trials!</p>
      <p>You will now begin the <strong>main set of trials</strong>.</p>
      <p>Remember your key assignments:</p>
      <ul>
        <li><strong>F</strong> = YES (real English word)</li>
        <li><strong>J</strong> = NO (not a real English word)</li>
      </ul>
      <p>Try to respond as <strong>quickly and accurately</strong> as possible.</p>
      <p style=""margin-top: 2em;"">Press any key to begin the main trials.</p>
    </div>
  "," ","html-keyboard-response","164","2.1.0","650073","F=YES, J=NO","ts3x1u1azq","0","85","85","85","","","","","","","","","","","","","","","",""
"2994","<p>Starting main block 1 of 8. Press any key to continue.</p>"," ","html-keyboard-response","165","2.1.0","653068","F=YES, J=NO","ts3x1u1azq","0","85","85","85","","","","","","","","","","","","","","","",""
"null","<p style=""font-size: 50px;"">+</p>","null","html-keyboard-response","166","2.1.0","653373","F=YES, J=NO","ts3x1u1azq","0","85","85","85","","","","","","","","","","","","","","","",""
"null","audio/beep-329314.mp3","null","audio-keyboard-response","167","2.1.0","654904","F=YES, J=NO","ts3x1u1azq","0","85","85","85","","","","","","","","","","","","","","","",""
"null","audio/client1.wav","null","audio-keyboard-response","168","2.1.0","655565","F=YES, J=NO","ts3x1u1azq","0","85","85","85","","","","","","","","","","","","","","","",""
"746","
          <p id=""word"" style=""font-size: 40px;"">droothe</p>
          <p style=""font-size: 16px;"">F = YES &nbsp;&nbsp;&nbsp; J = NO</p>
        ","j","html-keyboard-response","169","2.1.0","656313","F=YES, J=NO","ts3x1u1azq","0","85","85","85","","","","","","","","","droothe","client1","pseudoword","pseudoword","j","true","",""
"null","<p style=""font-size: 50px;"">+</p>","null","html-keyboard-response","170","2.1.0","656627","F=YES, J=NO","ts3x1u1azq","0","85","85","85","","","","","","","","","","","","","","","",""
"null","audio/beep-329314.mp3","null","audio-keyboard-response","171","2.1.0","658166","F=YES, J=NO","ts3x1u1azq","0","85","85","85","","","","","","","","","","","","","","","",""
"null","audio/gift1.wav","null","audio-keyboard-response","172","2.1.0","658665","F=YES, J=NO","ts3x1u1azq","0","85","85","85","","","","","","","","","","","","","","","",""
"859","
          <p id=""word"" style=""font-size: 40px;"">protsh</p>
          <p style=""font-size: 16px;"">F = YES &nbsp;&nbsp;&nbsp; J = NO</p>
        ","f","html-keyboard-response","173","2.1.0","659526","F=YES, J=NO","ts3x1u1azq","0","85","85","85","","","","","","","","","protsh","gift1","pseudoword","pseudoword","j","false","",""
"null","<p style=""font-size: 50px;"">+</p>","null","html-keyboard-response","174","2.1.0","659832","F=YES, J=NO","ts3x1u1azq","0","85","85","85","","","","","","","","","","","","","","","",""
"null","audio/beep-329314.mp3","null","audio-keyboard-response","175","2.1.0","661366","F=YES, J=NO","ts3x1u1azq","0","85","85","85","","","","","","","","","","","","","","","",""
"null","audio/cancer1.wav","null","audio-keyboard-response","176","2.1.0","662065","F=YES, J=NO","ts3x1u1azq","0","85","85","85","","","","","","","","","","","","","","","",""
"641","
          <p id=""word"" style=""font-size: 40px;"">draw</p>
          <p style=""font-size: 16px;"">F = YES &nbsp;&nbsp;&nbsp; J = NO</p>
        ","f","html-keyboard-response","177","2.1.0","662708","F=YES, J=NO","ts3x1u1azq","0","85","85","85","","","","","","","","","draw","cancer1","filler","filler","f","true","",""
"null","<p style=""font-size: 50px;"">+</p>","null","html-keyboard-response","178","2.1.0","663011","F=YES, J=NO","ts3x1u1azq","0","85","85","85","","","","","","","","","","","","","","","",""
"null","audio/beep-329314.mp3","null","audio-keyboard-response","179","2.1.0","664545","F=YES, J=NO","ts3x1u1azq","0","85","85","85","","","","","","","","","","","","","","","",""
"null","audio/winter.wav","null","audio-keyboard-response","180","2.1.0","665265","F=YES, J=NO","ts3x1u1azq","0","85","85","85","","","","","","","","","","","","","","","",""
"897","
          <p id=""word"" style=""font-size: 40px;"">straven</p>
          <p style=""font-size: 16px;"">F = YES &nbsp;&nbsp;&nbsp; J = NO</p>
        ","f","html-keyboard-response","181","2.1.0","666164","F=YES, J=NO","ts3x1u1azq","0","85","85","85","","","","","","","","","straven","winter","pseudoword","pseudoword","j","false","",""
"null","<p style=""font-size: 50px;"">+</p>","null","html-keyboard-response","182","2.1.0","666471","F=YES, J=NO","ts3x1u1azq","0","85","85","85","","","","","","","","","","","","","","","",""
"null","audio/beep-329314.mp3","null","audio-keyboard-response","183","2.1.0","668005","F=YES, J=NO","ts3x1u1azq","0","85","85","85","","","","","","","","","","","","","","","",""
"null","audio/uncle1.wav","null","audio-keyboard-response","184","2.1.0","668525","F=YES, J=NO","ts3x1u1azq","0","85","85","85","","","","","","","","","","","","","","","",""
"983","
          <p id=""word"" style=""font-size: 40px;"">dramble</p>
          <p style=""font-size: 16px;"">F = YES &nbsp;&nbsp;&nbsp; J = NO</p>
        ","f","html-keyboard-response","185","2.1.0","669511","F=YES, J=NO","ts3x1u1azq","0","85","85","85","","","","","","","","","dramble","uncle1","pseudoword","pseudoword","j","false","",""
"null","<p style=""font-size: 50px;"">+</p>","null","html-keyboard-response","186","2.1.0","669826","F=YES, J=NO","ts3x1u1azq","0","85","85","85","","","","","","","","","","","","","","","",""
"null","audio/beep-329314.mp3","null","audio-keyboard-response","187","2.1.0","671366","F=YES, J=NO","ts3x1u1azq","0","85","85","85","","","","","","","","","","","","","","","",""
"null","audio/age1.wav","null","audio-keyboard-response","188","2.1.0","671905","F=YES, J=NO","ts3x1u1azq","0","85","85","85","","","","","","","","","","","","","","","",""
"1003","
          <p id=""word"" style=""font-size: 40px;"">seize</p>
          <p style=""font-size: 16px;"">F = YES &nbsp;&nbsp;&nbsp; J = NO</p>
        ","f","html-keyboard-response","189","2.1.0","672910","F=YES, J=NO","ts3x1u1azq","0","85","85","85","","","","","","","","","seize","age1","unrelated","experimental","f","true","",""
"null","<p style=""font-size: 50px;"">+</p>","null","html-keyboard-response","190","2.1.0","673219","F=YES, J=NO","ts3x1u1azq","0","85","85","85","","","","","","","","","","","","","","","",""
"null","audio/beep-329314.mp3","null","audio-keyboard-response","191","2.1.0","674745","F=YES, J=NO","ts3x1u1azq","0","85","85","85","","","","","","","","","","","","","","","",""
"null","audio/foe1.wav","null","audio-keyboard-response","192","2.1.0","675404","F=YES, J=NO","ts3x1u1azq","0","85","85","85","","","","","","","","","","","","","","","",""
"675","
          <p id=""word"" style=""font-size: 40px;"">creth</p>
          <p style=""font-size: 16px;"">F = YES &nbsp;&nbsp;&nbsp; J = NO</p>
        ","j","html-keyboard-response","193","2.1.0","676080","F=YES, J=NO","ts3x1u1azq","0","85","85","85","","","","","","","","","creth","foe1","pseudoword","pseudoword","j","true","",""
"null","<p style=""font-size: 50px;"">+</p>","null","html-keyboard-response","194","2.1.0","676396","F=YES, J=NO","ts3x1u1azq","0","85","85","85","","","","","","","","","","","","","","","",""
"null","audio/beep-329314.mp3","null","audio-keyboard-response","195","2.1.0","677925","F=YES, J=NO","ts3x1u1azq","0","85","85","85","","","","","","","","","","","","","","","",""
"null","audio/pine.wav","null","audio-keyboard-response","196","2.1.0","678544","F=YES, J=NO","ts3x1u1azq","0","85","85","85","","","","","","","","","","","","","","","",""
"871","
          <p id=""word"" style=""font-size: 40px;"">crebble</p>
          <p style=""font-size: 16px;"">F = YES &nbsp;&nbsp;&nbsp; J = NO</p>
        ","j","html-keyboard-response","197","2.1.0","679417","F=YES, J=NO","ts3x1u1azq","0","85","85","85","","","","","","","","","crebble","pine","pseudoword","pseudoword","j","true","",""
"null","<p style=""font-size: 50px;"">+</p>","null","html-keyboard-response","198","2.1.0","679727","F=YES, J=NO","ts3x1u1azq","0","85","85","85","","","","","","","","","","","","","","","",""
"null","audio/beep-329314.mp3","null","audio-keyboard-response","199","2.1.0","681265","F=YES, J=NO","ts3x1u1azq","0","85","85","85","","","","","","","","","","","","","","","",""
"null","audio/stain.wav","null","audio-keyboard-response","200","2.1.0","681945","F=YES, J=NO","ts3x1u1azq","0","85","85","85","","","","","","","","","","","","","","","",""
"870","
          <p id=""word"" style=""font-size: 40px;"">rumpsied</p>
          <p style=""font-size: 16px;"">F = YES &nbsp;&nbsp;&nbsp; J = NO</p>
        ","f","html-keyboard-response","201","2.1.0","682817","F=YES, J=NO","ts3x1u1azq","0","85","85","85","","","","","","","","","rumpsied","stain","pseudoword","pseudoword","j","false","",""
"null","<p style=""font-size: 50px;"">+</p>","null","html-keyboard-response","202","2.1.0","683134","F=YES, J=NO","ts3x1u1azq","0","85","85","85","","","","","","","","","","","","","","","",""
"null","audio/beep-329314.mp3","null","audio-keyboard-response","203","2.1.0","684665","F=YES, J=NO","ts3x1u1azq","0","85","85","85","","","","","","","","","","","","","","","",""
"null","audio/van1.wav","null","audio-keyboard-response","204","2.1.0","685185","F=YES, J=NO","ts3x1u1azq","0","85","85","85","","","","","","","","","","","","","","","",""
"616","
          <p id=""word"" style=""font-size: 40px;"">support</p>
          <p style=""font-size: 16px;"">F = YES &nbsp;&nbsp;&nbsp; J = NO</p>
        ","f","html-keyboard-response","205","2.1.0","685803","F=YES, J=NO","ts3x1u1azq","0","85","85","85","","","","","","","","","support","van1","unrelated","experimental","f","true","",""
"null","<p style=""font-size: 50px;"">+</p>","null","html-keyboard-response","206","2.1.0","686110","F=YES, J=NO","ts3x1u1azq","0","85","85","85","","","","","","","","","","","","","","","",""
"null","audio/beep-329314.mp3","null","audio-keyboard-response","207","2.1.0","687645","F=YES, J=NO","ts3x1u1azq","0","85","85","85","","","","","","","","","","","","","","","",""
"null","audio/butter1.wav","null","audio-keyboard-response","208","2.1.0","688085","F=YES, J=NO","ts3x1u1azq","0","85","85","85","","","","","","","","","","","","","","","",""
"709","
          <p id=""word"" style=""font-size: 40px;"">spread</p>
          <p style=""font-size: 16px;"">F = YES &nbsp;&nbsp;&nbsp; J = NO</p>
        ","f","html-keyboard-response","209","2.1.0","688796","F=YES, J=NO","ts3x1u1azq","0","85","85","85","","","","","","","","","spread","butter1","literal","experimental","f","true","",""
"null","<p style=""font-size: 50px;"">+</p>","null","html-keyboard-response","210","2.1.0","689101","F=YES, J=NO","ts3x1u1azq","0","85","85","85","","","","","","","","","","","","","","","",""
"null","audio/beep-329314.mp3","null","audio-keyboard-response","211","2.1.0","690624","F=YES, J=NO","ts3x1u1azq","0","85","85","85","","","","","","","","","","","","","","","",""
"null","audio/weight1.wav","null","audio-keyboard-response","212","2.1.0","691165","F=YES, J=NO","ts3x1u1azq","0","85","85","85","","","","","","","","","","","","","","","",""
"957","
          <p id=""word"" style=""font-size: 40px;"">crimsh</p>
          <p style=""font-size: 16px;"">F = YES &nbsp;&nbsp;&nbsp; J = NO</p>
        ","j","html-keyboard-response","213","2.1.0","692124","F=YES, J=NO","ts3x1u1azq","0","85","85","85","","","","","","","","","crimsh","weight1","pseudoword","pseudoword","j","true","",""
"null","<p style=""font-size: 50px;"">+</p>","null","html-keyboard-response","214","2.1.0","692428","F=YES, J=NO","ts3x1u1azq","0","85","85","85","","","","","","","","","","","","","","","",""
"null","audio/beep-329314.mp3","null","audio-keyboard-response","215","2.1.0","693965","F=YES, J=NO","ts3x1u1azq","0","85","85","85","","","","","","","","","","","","","","","",""
"null","audio/sugar1.wav","null","audio-keyboard-response","216","2.1.0","694584","F=YES, J=NO","ts3x1u1azq","0","85","85","85","","","","","","","","","","","","","","","",""
"995","
          <p id=""word"" style=""font-size: 40px;"">glung</p>
          <p style=""font-size: 16px;"">F = YES &nbsp;&nbsp;&nbsp; J = NO</p>
        ","f","html-keyboard-response","217","2.1.0","695579","F=YES, J=NO","ts3x1u1azq","0","85","85","85","","","","","","","","","glung","sugar1","pseudoword","pseudoword","j","false","",""
"null","<p style=""font-size: 50px;"">+</p>","null","html-keyboard-response","218","2.1.0","695885","F=YES, J=NO","ts3x1u1azq","0","85","85","85","","","","","","","","","","","","","","","",""
"null","audio/beep-329314.mp3","null","audio-keyboard-response","219","2.1.0","697426","F=YES, J=NO","ts3x1u1azq","0","85","85","85","","","","","","","","","","","","","","","",""
"null","audio/show.wav","null","audio-keyboard-response","220","2.1.0","698005","F=YES, J=NO","ts3x1u1azq","0","85","85","85","","","","","","","","","","","","","","","",""
"642","
          <p id=""word"" style=""font-size: 40px;"">smark</p>
          <p style=""font-size: 16px;"">F = YES &nbsp;&nbsp;&nbsp; J = NO</p>
        ","f","html-keyboard-response","221","2.1.0","698648","F=YES, J=NO","ts3x1u1azq","0","85","85","85","","","","","","","","","smark","show","pseudoword","pseudoword","j","false","",""
"null","<p style=""font-size: 50px;"">+</p>","null","html-keyboard-response","222","2.1.0","698964","F=YES, J=NO","ts3x1u1azq","0","85","85","85","","","","","","","","","","","","","","","",""
"null","audio/beep-329314.mp3","null","audio-keyboard-response","223","2.1.0","700505","F=YES, J=NO","ts3x1u1azq","0","85","85","85","","","","","","","","","","","","","","","",""
"null","audio/news.wav","null","audio-keyboard-response","224","2.1.0","701305","F=YES, J=NO","ts3x1u1azq","0","85","85","85","","","","","","","","","","","","","","","",""
"806","
          <p id=""word"" style=""font-size: 40px;"">digest</p>
          <p style=""font-size: 16px;"">F = YES &nbsp;&nbsp;&nbsp; J = NO</p>
        ","f","html-keyboard-response","225","2.1.0","702114","F=YES, J=NO","ts3x1u1azq","0","85","85","85","","","","","","","","","digest","news","metaphor","experimental","f","true","",""
"null","<p style=""font-size: 50px;"">+</p>","null","html-keyboard-response","226","2.1.0","702423","F=YES, J=NO","ts3x1u1azq","0","85","85","85","","","","","","","","","","","","","","","",""
"null","audio/beep-329314.mp3","null","audio-keyboard-response","227","2.1.0","703965","F=YES, J=NO","ts3x1u1azq","0","85","85","85","","","","","","","","","","","","","","","",""
"null","audio/effort.wav","null","audio-keyboard-response","228","2.1.0","704585","F=YES, J=NO","ts3x1u1azq","0","85","85","85","","","","","","","","","","","","","","","",""
"920","
          <p id=""word"" style=""font-size: 40px;"">whonk</p>
          <p style=""font-size: 16px;"">F = YES &nbsp;&nbsp;&nbsp; J = NO</p>
        ","j","html-keyboard-response","229","2.1.0","705506","F=YES, J=NO","ts3x1u1azq","0","85","85","85","","","","","","","","","whonk","effort","pseudoword","pseudoword","j","true","",""
"7096","<p>Excellent! You have finished block 1 of 8.</p>
                     <p>Feel free to take a 30 second break.</p>
                     <p>Press any key when you're ready to continue.</p>"," ","html-keyboard-response","230","2.1.0","712605","F=YES, J=NO","ts3x1u1azq","0","85","85","85","","","","","","","","","","","","","","","",""
"1286","<p>Starting main block 2 of 8. Press any key to continue.</p>"," ","html-keyboard-response","231","2.1.0","713893","F=YES, J=NO","ts3x1u1azq","0","85","85","85","","","","","","","","","","","","","","","",""
"null","<p style=""font-size: 50px;"">+</p>","null","html-keyboard-response","232","2.1.0","714204","F=YES, J=NO","ts3x1u1azq","0","85","85","85","","","","","","","","","","","","","","","",""
"null","audio/beep-329314.mp3","null","audio-keyboard-response","233","2.1.0","715715","F=YES, J=NO","ts3x1u1azq","0","85","85","85","","","","","","","","","","","","","","","",""
"null","audio/cinema1.wav","null","audio-keyboard-response","234","2.1.0","716325","F=YES, J=NO","ts3x1u1azq","0","85","85","85","","","","","","","","","","","","","","","",""
"817","
          <p id=""word"" style=""font-size: 40px;"">murple</p>
          <p style=""font-size: 16px;"">F = YES &nbsp;&nbsp;&nbsp; J = NO</p>
        ","f","html-keyboard-response","235","2.1.0","717144","F=YES, J=NO","ts3x1u1azq","0","85","85","85","","","","","","","","","murple","cinema1","pseudoword","pseudoword","j","false","",""
"null","<p style=""font-size: 50px;"">+</p>","null","html-keyboard-response","236","2.1.0","717447","F=YES, J=NO","ts3x1u1azq","0","85","85","85","","","","","","","","","","","","","","","",""
"null","audio/beep-329314.mp3","null","audio-keyboard-response","237","2.1.0","718975","F=YES, J=NO","ts3x1u1azq","0","85","85","85","","","","","","","","","","","","","","","",""
"null","audio/sand.wav","null","audio-keyboard-response","238","2.1.0","719765","F=YES, J=NO","ts3x1u1azq","0","85","85","85","","","","","","","","","","","","","","","",""
"767","
          <p id=""word"" style=""font-size: 40px;"">possess</p>
          <p style=""font-size: 16px;"">F = YES &nbsp;&nbsp;&nbsp; J = NO</p>
        ","f","html-keyboard-response","239","2.1.0","720534","F=YES, J=NO","ts3x1u1azq","0","85","85","85","","","","","","","","","possess","sand","unrelated","experimental","f","true","",""
"null","<p style=""font-size: 50px;"">+</p>","null","html-keyboard-response","240","2.1.0","720842","F=YES, J=NO","ts3x1u1azq","0","85","85","85","","","","","","","","","","","","","","","",""
"null","audio/beep-329314.mp3","null","audio-keyboard-response","241","2.1.0","722375","F=YES, J=NO","ts3x1u1azq","0","85","85","85","","","","","","","","","","","","","","","",""
"null","audio/floor.wav","null","audio-keyboard-response","242","2.1.0","722905","F=YES, J=NO","ts3x1u1azq","0","85","85","85","","","","","","","","","","","","","","","",""
"615","
          <p id=""word"" style=""font-size: 40px;"">cover</p>
          <p style=""font-size: 16px;"">F = YES &nbsp;&nbsp;&nbsp; J = NO</p>
        ","f","html-keyboard-response","243","2.1.0","723521","F=YES, J=NO","ts3x1u1azq","0","85","85","85","","","","","","","","","cover","floor","literal","experimental","f","true","",""
"null","<p style=""font-size: 50px;"">+</p>","null","html-keyboard-response","244","2.1.0","723827","F=YES, J=NO","ts3x1u1azq","0","85","85","85","","","","","","","","","","","","","","","",""
"null","audio/beep-329314.mp3","null","audio-keyboard-response","245","2.1.0","725355","F=YES, J=NO","ts3x1u1azq","0","85","85","85","","","","","","","","","","","","","","","",""
"null","audio/camp.wav","null","audio-keyboard-response","246","2.1.0","726045","F=YES, J=NO","ts3x1u1azq","0","85","85","85","","","","","","","","","","","","","","","",""
"680","
          <p id=""word"" style=""font-size: 40px;"">touch</p>
          <p style=""font-size: 16px;"">F = YES &nbsp;&nbsp;&nbsp; J = NO</p>
        ","f","html-keyboard-response","247","2.1.0","726727","F=YES, J=NO","ts3x1u1azq","0","85","85","85","","","","","","","","","touch","camp","unrelated","experimental","f","true","",""
"null","<p style=""font-size: 50px;"">+</p>","null","html-keyboard-response","248","2.1.0","727039","F=YES, J=NO","ts3x1u1azq","0","85","85","85","","","","","","","","","","","","","","","",""
"null","audio/beep-329314.mp3","null","audio-keyboard-response","249","2.1.0","728574","F=YES, J=NO","ts3x1u1azq","0","85","85","85","","","","","","","","","","","","","","","",""
"null","audio/breath.wav","null","audio-keyboard-response","250","2.1.0","729285","F=YES, J=NO","ts3x1u1azq","0","85","85","85","","","","","","","","","","","","","","","",""
"870","
          <p id=""word"" style=""font-size: 40px;"">twets</p>
          <p style=""font-size: 16px;"">F = YES &nbsp;&nbsp;&nbsp; J = NO</p>
        ","j","html-keyboard-response","251","2.1.0","730157","F=YES, J=NO","ts3x1u1azq","0","85","85","85","","","","","","","","","twets","breath","pseudoword","pseudoword","j","true","",""
"null","<p style=""font-size: 50px;"">+</p>","null","html-keyboard-response","252","2.1.0","730472","F=YES, J=NO","ts3x1u1azq","0","85","85","85","","","","","","","","","","","","","","","",""
"null","audio/beep-329314.mp3","null","audio-keyboard-response","253","2.1.0","732015","F=YES, J=NO","ts3x1u1azq","0","85","85","85","","","","","","","","","","","","","","","",""
"null","audio/arm.wav","null","audio-keyboard-response","254","2.1.0","732585","F=YES, J=NO","ts3x1u1azq","0","85","85","85","","","","","","","","","","","","","","","",""
"600","
          <p id=""word"" style=""font-size: 40px;"">fold</p>
          <p style=""font-size: 16px;"">F = YES &nbsp;&nbsp;&nbsp; J = NO</p>
        ","f","html-keyboard-response","255","2.1.0","733187","F=YES, J=NO","ts3x1u1azq","0","85","85","85","","","","","","","","","fold","arm","filler","filler","f","true","",""
"null","<p style=""font-size: 50px;"">+</p>","null","html-keyboard-response","256","2.1.0","733495","F=YES, J=NO","ts3x1u1azq","0","85","85","85","","","","","","","","","","","","","","","",""
"null","audio/beep-329314.mp3","null","audio-keyboard-response","257","2.1.0","735035","F=YES, J=NO","ts3x1u1azq","0","85","85","85","","","","","","","","","","","","","","","",""
"null","audio/death1.wav","null","audio-keyboard-response","258","2.1.0","735664","F=YES, J=NO","ts3x1u1azq","0","85","85","85","","","","","","","","","","","","","","","",""
"673","
          <p id=""word"" style=""font-size: 40px;"">conquer</p>
          <p style=""font-size: 16px;"">F = YES &nbsp;&nbsp;&nbsp; J = NO</p>
        ","f","html-keyboard-response","259","2.1.0","736339","F=YES, J=NO","ts3x1u1azq","0","85","85","85","","","","","","","","","conquer","death1","metaphor","experimental","f","true","",""
"null","<p style=""font-size: 50px;"">+</p>","null","html-keyboard-response","260","2.1.0","736652","F=YES, J=NO","ts3x1u1azq","0","85","85","85","","","","","","","","","","","","","","","",""
"null","audio/beep-329314.mp3","null","audio-keyboard-response","261","2.1.0","738175","F=YES, J=NO","ts3x1u1azq","0","85","85","85","","","","","","","","","","","","","","","",""
"null","audio/trust.wav","null","audio-keyboard-response","262","2.1.0","738965","F=YES, J=NO","ts3x1u1azq","0","85","85","85","","","","","","","","","","","","","","","",""
"533","
          <p id=""word"" style=""font-size: 40px;"">build</p>
          <p style=""font-size: 16px;"">F = YES &nbsp;&nbsp;&nbsp; J = NO</p>
        ","f","html-keyboard-response","263","2.1.0","739500","F=YES, J=NO","ts3x1u1azq","0","85","85","85","","","","","","","","","build","trust","metaphor","experimental","f","true","",""
"null","<p style=""font-size: 50px;"">+</p>","null","html-keyboard-response","264","2.1.0","739813","F=YES, J=NO","ts3x1u1azq","0","85","85","85","","","","","","","","","","","","","","","",""
"null","audio/beep-329314.mp3","null","audio-keyboard-response","265","2.1.0","741355","F=YES, J=NO","ts3x1u1azq","0","85","85","85","","","","","","","","","","","","","","","",""
"null","audio/flaw.wav","null","audio-keyboard-response","266","2.1.0","742005","F=YES, J=NO","ts3x1u1azq","0","85","85","85","","","","","","","","","","","","","","","",""
"597","
          <p id=""word"" style=""font-size: 40px;"">hide</p>
          <p style=""font-size: 16px;"">F = YES &nbsp;&nbsp;&nbsp; J = NO</p>
        ","f","html-keyboard-response","267","2.1.0","742604","F=YES, J=NO","ts3x1u1azq","0","85","85","85","","","","","","","","","hide","flaw","metaphor","experimental","f","true","",""
"null","<p style=""font-size: 50px;"">+</p>","null","html-keyboard-response","268","2.1.0","742912","F=YES, J=NO","ts3x1u1azq","0","85","85","85","","","","","","","","","","","","","","","",""
"null","audio/beep-329314.mp3","null","audio-keyboard-response","269","2.1.0","744455","F=YES, J=NO","ts3x1u1azq","0","85","85","85","","","","","","","","","","","","","","","",""
"null","audio/radio1.wav","null","audio-keyboard-response","270","2.1.0","745065","F=YES, J=NO","ts3x1u1azq","0","85","85","85","","","","","","","","","","","","","","","",""
"621","
          <p id=""word"" style=""font-size: 40px;"">spend</p>
          <p style=""font-size: 16px;"">F = YES &nbsp;&nbsp;&nbsp; J = NO</p>
        ","f","html-keyboard-response","271","2.1.0","745688","F=YES, J=NO","ts3x1u1azq","0","85","85","85","","","","","","","","","spend","radio1","unrelated","experimental","f","true","",""
"null","<p style=""font-size: 50px;"">+</p>","null","html-keyboard-response","272","2.1.0","745996","F=YES, J=NO","ts3x1u1azq","0","85","85","85","","","","","","","","","","","","","","","",""
"null","audio/beep-329314.mp3","null","audio-keyboard-response","273","2.1.0","747535","F=YES, J=NO","ts3x1u1azq","0","85","85","85","","","","","","","","","","","","","","","",""
"null","audio/plot1.wav","null","audio-keyboard-response","274","2.1.0","748104","F=YES, J=NO","ts3x1u1azq","0","85","85","85","","","","","","","","","","","","","","","",""
"952","
          <p id=""word"" style=""font-size: 40px;"">weave</p>
          <p style=""font-size: 16px;"">F = YES &nbsp;&nbsp;&nbsp; J = NO</p>
        ","f","html-keyboard-response","275","2.1.0","749056","F=YES, J=NO","ts3x1u1azq","0","85","85","85","","","","","","","","","weave","plot1","metaphor","experimental","f","true","",""
"null","<p style=""font-size: 50px;"">+</p>","null","html-keyboard-response","276","2.1.0","749359","F=YES, J=NO","ts3x1u1azq","0","85","85","85","","","","","","","","","","","","","","","",""
"null","audio/beep-329314.mp3","null","audio-keyboard-response","277","2.1.0","750895","F=YES, J=NO","ts3x1u1azq","0","85","85","85","","","","","","","","","","","","","","","",""
"null","audio/hotel1.wav","null","audio-keyboard-response","278","2.1.0","751665","F=YES, J=NO","ts3x1u1azq","0","85","85","85","","","","","","","","","","","","","","","",""
"1021","
          <p id=""word"" style=""font-size: 40px;"">flanter</p>
          <p style=""font-size: 16px;"">F = YES &nbsp;&nbsp;&nbsp; J = NO</p>
        ","f","html-keyboard-response","279","2.1.0","752688","F=YES, J=NO","ts3x1u1azq","0","85","85","85","","","","","","","","","flanter","hotel1","pseudoword","pseudoword","j","false","",""
"null","<p style=""font-size: 50px;"">+</p>","null","html-keyboard-response","280","2.1.0","752991","F=YES, J=NO","ts3x1u1azq","0","85","85","85","","","","","","","","","","","","","","","",""
"null","audio/beep-329314.mp3","null","audio-keyboard-response","281","2.1.0","754514","F=YES, J=NO","ts3x1u1azq","0","85","85","85","","","","","","","","","","","","","","","",""
"null","audio/alarm1.wav","null","audio-keyboard-response","282","2.1.0","755245","F=YES, J=NO","ts3x1u1azq","0","85","85","85","","","","","","","","","","","","","","","",""
"600","
          <p id=""word"" style=""font-size: 40px;"">lock</p>
          <p style=""font-size: 16px;"">F = YES &nbsp;&nbsp;&nbsp; J = NO</p>
        ","f","html-keyboard-response","283","2.1.0","755847","F=YES, J=NO","ts3x1u1azq","0","85","85","85","","","","","","","","","lock","alarm1","filler","filler","f","true","",""
"null","<p style=""font-size: 50px;"">+</p>","null","html-keyboard-response","284","2.1.0","756157","F=YES, J=NO","ts3x1u1azq","0","85","85","85","","","","","","","","","","","","","","","",""
"null","audio/beep-329314.mp3","null","audio-keyboard-response","285","2.1.0","757695","F=YES, J=NO","ts3x1u1azq","0","85","85","85","","","","","","","","","","","","","","","",""
"null","audio/baby.wav","null","audio-keyboard-response","286","2.1.0","758305","F=YES, J=NO","ts3x1u1azq","0","85","85","85","","","","","","","","","","","","","","","",""
"544","
          <p id=""word"" style=""font-size: 40px;"">hold</p>
          <p style=""font-size: 16px;"">F = YES &nbsp;&nbsp;&nbsp; J = NO</p>
        ","f","html-keyboard-response","287","2.1.0","758851","F=YES, J=NO","ts3x1u1azq","0","85","85","85","","","","","","","","","hold","baby","literal","experimental","f","true","",""
"null","<p style=""font-size: 50px;"">+</p>","null","html-keyboard-response","288","2.1.0","759156","F=YES, J=NO","ts3x1u1azq","0","85","85","85","","","","","","","","","","","","","","","",""
"null","audio/beep-329314.mp3","null","audio-keyboard-response","289","2.1.0","760695","F=YES, J=NO","ts3x1u1azq","0","85","85","85","","","","","","","","","","","","","","","",""
"null","audio/grass.wav","null","audio-keyboard-response","290","2.1.0","761505","F=YES, J=NO","ts3x1u1azq","0","85","85","85","","","","","","","","","","","","","","","",""
"791","
          <p id=""word"" style=""font-size: 40px;"">milames</p>
          <p style=""font-size: 16px;"">F = YES &nbsp;&nbsp;&nbsp; J = NO</p>
        ","j","html-keyboard-response","291","2.1.0","762298","F=YES, J=NO","ts3x1u1azq","0","85","85","85","","","","","","","","","milames","grass","pseudoword","pseudoword","j","true","",""
"null","<p style=""font-size: 50px;"">+</p>","null","html-keyboard-response","292","2.1.0","762611","F=YES, J=NO","ts3x1u1azq","0","85","85","85","","","","","","","","","","","","","","","",""
"null","audio/beep-329314.mp3","null","audio-keyboard-response","293","2.1.0","764136","F=YES, J=NO","ts3x1u1azq","0","85","85","85","","","","","","","","","","","","","","","",""
"null","audio/mile1.wav","null","audio-keyboard-response","294","2.1.0","764765","F=YES, J=NO","ts3x1u1azq","0","85","85","85","","","","","","","","","","","","","","","",""
"488","
          <p id=""word"" style=""font-size: 40px;"">run</p>
          <p style=""font-size: 16px;"">F = YES &nbsp;&nbsp;&nbsp; J = NO</p>
        ","f","html-keyboard-response","295","2.1.0","765255","F=YES, J=NO","ts3x1u1azq","0","85","85","85","","","","","","","","","run","mile1","literal","experimental","f","true","",""
"4465","<p>Excellent! You have finished block 2 of 8.</p>
                     <p>Feel free to take a 30 second break.</p>
                     <p>Press any key when you're ready to continue.</p>"," ","html-keyboard-response","296","2.1.0","769722","F=YES, J=NO","ts3x1u1azq","0","85","85","85","","","","","","","","","","","","","","","",""
"656","<p>Starting main block 3 of 8. Press any key to continue.</p>"," ","html-keyboard-response","297","2.1.0","770380","F=YES, J=NO","ts3x1u1azq","0","85","85","85","","","","","","","","","","","","","","","",""
"null","<p style=""font-size: 50px;"">+</p>","null","html-keyboard-response","298","2.1.0","770697","F=YES, J=NO","ts3x1u1azq","0","85","85","85","","","","","","","","","","","","","","","",""
"null","audio/beep-329314.mp3","null","audio-keyboard-response","299","2.1.0","772234","F=YES, J=NO","ts3x1u1azq","0","85","85","85","","","","","","","","","","","","","","","",""
"null","audio/dollar.wav","null","audio-keyboard-response","300","2.1.0","772625","F=YES, J=NO","ts3x1u1azq","0","85","85","85","","","","","","","","","","","","","","","",""
"673","
          <p id=""word"" style=""font-size: 40px;"">gliptism</p>
          <p style=""font-size: 16px;"">F = YES &nbsp;&nbsp;&nbsp; J = NO</p>
        ","j","html-keyboard-response","301","2.1.0","773300","F=YES, J=NO","ts3x1u1azq","0","85","85","85","","","","","","","","","gliptism","dollar","pseudoword","pseudoword","j","true","",""
"null","<p style=""font-size: 50px;"">+</p>","null","html-keyboard-response","302","2.1.0","773609","F=YES, J=NO","ts3x1u1azq","0","85","85","85","","","","","","","","","","","","","","","",""
"null","audio/beep-329314.mp3","null","audio-keyboard-response","303","2.1.0","775135","F=YES, J=NO","ts3x1u1azq","0","85","85","85","","","","","","","","","","","","","","","",""
"null","audio/stain.wav","null","audio-keyboard-response","304","2.1.0","775765","F=YES, J=NO","ts3x1u1azq","0","85","85","85","","","","","","","","","","","","","","","",""
"489","
          <p id=""word"" style=""font-size: 40px;"">wipe</p>
          <p style=""font-size: 16px;"">F = YES &nbsp;&nbsp;&nbsp; J = NO</p>
        ","f","html-keyboard-response","305","2.1.0","776256","F=YES, J=NO","ts3x1u1azq","0","85","85","85","","","","","","","","","wipe","stain","literal","experimental","f","true","",""
"null","<p style=""font-size: 50px;"">+</p>","null","html-keyboard-response","306","2.1.0","776559","F=YES, J=NO","ts3x1u1azq","0","85","85","85","","","","","","","","","","","","","","","",""
"null","audio/beep-329314.mp3","null","audio-keyboard-response","307","2.1.0","778095","F=YES, J=NO","ts3x1u1azq","0","85","85","85","","","","","","","","","","","","","","","",""
"null","audio/pig.wav","null","audio-keyboard-response","308","2.1.0","778485","F=YES, J=NO","ts3x1u1azq","0","85","85","85","","","","","","","","","","","","","","","",""
"939","
          <p id=""word"" style=""font-size: 40px;"">tirlike</p>
          <p style=""font-size: 16px;"">F = YES &nbsp;&nbsp;&nbsp; J = NO</p>
        ","j","html-keyboard-response","309","2.1.0","779426","F=YES, J=NO","ts3x1u1azq","0","85","85","85","","","","","","","","","tirlike","pig","pseudoword","pseudoword","j","true","",""
"null","<p style=""font-size: 50px;"">+</p>","null","html-keyboard-response","310","2.1.0","779730","F=YES, J=NO","ts3x1u1azq","0","85","85","85","","","","","","","","","","","","","","","",""
"null","audio/beep-329314.mp3","null","audio-keyboard-response","311","2.1.0","781256","F=YES, J=NO","ts3x1u1azq","0","85","85","85","","","","","","","","","","","","","","","",""
"null","audio/tunnel.wav","null","audio-keyboard-response","312","2.1.0","781685","F=YES, J=NO","ts3x1u1azq","0","85","85","85","","","","","","","","","","","","","","","",""
"705","
          <p id=""word"" style=""font-size: 40px;"">gred</p>
          <p style=""font-size: 16px;"">F = YES &nbsp;&nbsp;&nbsp; J = NO</p>
        ","f","html-keyboard-response","313","2.1.0","782392","F=YES, J=NO","ts3x1u1azq","0","85","85","85","","","","","","","","","gred","tunnel","pseudoword","pseudoword","j","false","",""
"null","<p style=""font-size: 50px;"">+</p>","null","html-keyboard-response","314","2.1.0","782699","F=YES, J=NO","ts3x1u1azq","0","85","85","85","","","","","","","","","","","","","","","",""
"null","audio/beep-329314.mp3","null","audio-keyboard-response","315","2.1.0","784235","F=YES, J=NO","ts3x1u1azq","0","85","85","85","","","","","","","","","","","","","","","",""
"null","audio/rain.wav","null","audio-keyboard-response","316","2.1.0","784825","F=YES, J=NO","ts3x1u1azq","0","85","85","85","","","","","","","","","","","","","","","",""
"550","
          <p id=""word"" style=""font-size: 40px;"">lose</p>
          <p style=""font-size: 16px;"">F = YES &nbsp;&nbsp;&nbsp; J = NO</p>
        ","f","html-keyboard-response","317","2.1.0","785377","F=YES, J=NO","ts3x1u1azq","0","85","85","85","","","","","","","","","lose","rain","unrelated","experimental","f","true","",""
"null","<p style=""font-size: 50px;"">+</p>","null","html-keyboard-response","318","2.1.0","785693","F=YES, J=NO","ts3x1u1azq","0","85","85","85","","","","","","","","","","","","","","","",""
"null","audio/beep-329314.mp3","null","audio-keyboard-response","319","2.1.0","787235","F=YES, J=NO","ts3x1u1azq","0","85","85","85","","","","","","","","","","","","","","","",""
"null","audio/van1.wav","null","audio-keyboard-response","320","2.1.0","787705","F=YES, J=NO","ts3x1u1azq","0","85","85","85","","","","","","","","","","","","","","","",""
"577","
          <p id=""word"" style=""font-size: 40px;"">push</p>
          <p style=""font-size: 16px;"">F = YES &nbsp;&nbsp;&nbsp; J = NO</p>
        ","f","html-keyboard-response","321","2.1.0","788284","F=YES, J=NO","ts3x1u1azq","0","85","85","85","","","","","","","","","push","van1","filler","filler","f","true","",""
"null","<p style=""font-size: 50px;"">+</p>","null","html-keyboard-response","322","2.1.0","788592","F=YES, J=NO","ts3x1u1azq","0","85","85","85","","","","","","","","","","","","","","","",""
"null","audio/beep-329314.mp3","null","audio-keyboard-response","323","2.1.0","790116","F=YES, J=NO","ts3x1u1azq","0","85","85","85","","","","","","","","","","","","","","","",""
"null","audio/trust.wav","null","audio-keyboard-response","324","2.1.0","790725","F=YES, J=NO","ts3x1u1azq","0","85","85","85","","","","","","","","","","","","","","","",""
"786","
          <p id=""word"" style=""font-size: 40px;"">swint</p>
          <p style=""font-size: 16px;"">F = YES &nbsp;&nbsp;&nbsp; J = NO</p>
        ","j","html-keyboard-response","325","2.1.0","791513","F=YES, J=NO","ts3x1u1azq","0","85","85","85","","","","","","","","","swint","trust","pseudoword","pseudoword","j","true","",""
"null","<p style=""font-size: 50px;"">+</p>","null","html-keyboard-response","326","2.1.0","791826","F=YES, J=NO","ts3x1u1azq","0","85","85","85","","","","","","","","","","","","","","","",""
"null","audio/beep-329314.mp3","null","audio-keyboard-response","327","2.1.0","793354","F=YES, J=NO","ts3x1u1azq","0","85","85","85","","","","","","","","","","","","","","","",""
"null","audio/road.wav","null","audio-keyboard-response","328","2.1.0","793785","F=YES, J=NO","ts3x1u1azq","0","85","85","85","","","","","","","","","","","","","","","",""
"719","
          <p id=""word"" style=""font-size: 40px;"">wappings</p>
          <p style=""font-size: 16px;"">F = YES &nbsp;&nbsp;&nbsp; J = NO</p>
        ","j","html-keyboard-response","329","2.1.0","794506","F=YES, J=NO","ts3x1u1azq","0","85","85","85","","","","","","","","","wappings","road","pseudoword","pseudoword","j","true","",""
"null","<p style=""font-size: 50px;"">+</p>","null","html-keyboard-response","330","2.1.0","794824","F=YES, J=NO","ts3x1u1azq","0","85","85","85","","","","","","","","","","","","","","","",""
"null","audio/beep-329314.mp3","null","audio-keyboard-response","331","2.1.0","796354","F=YES, J=NO","ts3x1u1azq","0","85","85","85","","","","","","","","","","","","","","","",""
"null","audio/golf1.wav","null","audio-keyboard-response","332","2.1.0","797064","F=YES, J=NO","ts3x1u1azq","0","85","85","85","","","","","","","","","","","","","","","",""
"823","
          <p id=""word"" style=""font-size: 40px;"">drabble</p>
          <p style=""font-size: 16px;"">F = YES &nbsp;&nbsp;&nbsp; J = NO</p>
        ","j","html-keyboard-response","333","2.1.0","797890","F=YES, J=NO","ts3x1u1azq","0","85","85","85","","","","","","","","","drabble","golf1","pseudoword","pseudoword","j","true","",""
"null","<p style=""font-size: 50px;"">+</p>","null","html-keyboard-response","334","2.1.0","798194","F=YES, J=NO","ts3x1u1azq","0","85","85","85","","","","","","","","","","","","","","","",""
"null","audio/beep-329314.mp3","null","audio-keyboard-response","335","2.1.0","799735","F=YES, J=NO","ts3x1u1azq","0","85","85","85","","","","","","","","","","","","","","","",""
"null","audio/pain1.wav","null","audio-keyboard-response","336","2.1.0","800185","F=YES, J=NO","ts3x1u1azq","0","85","85","85","","","","","","","","","","","","","","","",""
"963","
          <p id=""word"" style=""font-size: 40px;"">tritted</p>
          <p style=""font-size: 16px;"">F = YES &nbsp;&nbsp;&nbsp; J = NO</p>
        ","f","html-keyboard-response","337","2.1.0","801150","F=YES, J=NO","ts3x1u1azq","0","85","85","85","","","","","","","","","tritted","pain1","pseudoword","pseudoword","j","false","",""
"null","<p style=""font-size: 50px;"">+</p>","null","html-keyboard-response","338","2.1.0","801461","F=YES, J=NO","ts3x1u1azq","0","85","85","85","","","","","","","","","","","","","","","",""
"null","audio/beep-329314.mp3","null","audio-keyboard-response","339","2.1.0","802995","F=YES, J=NO","ts3x1u1azq","0","85","85","85","","","","","","","","","","","","","","","",""
"null","audio/flaw.wav","null","audio-keyboard-response","340","2.1.0","803605","F=YES, J=NO","ts3x1u1azq","0","85","85","85","","","","","","","","","","","","","","","",""
"621","
          <p id=""word"" style=""font-size: 40px;"">thwool</p>
          <p style=""font-size: 16px;"">F = YES &nbsp;&nbsp;&nbsp; J = NO</p>
        ","j","html-keyboard-response","341","2.1.0","804228","F=YES, J=NO","ts3x1u1azq","0","85","85","85","","","","","","","","","thwool","flaw","pseudoword","pseudoword","j","true","",""
"null","<p style=""font-size: 50px;"">+</p>","null","html-keyboard-response","342","2.1.0","804543","F=YES, J=NO","ts3x1u1azq","0","85","85","85","","","","","","","","","","","","","","","",""
"null","audio/beep-329314.mp3","null","audio-keyboard-response","343","2.1.0","806075","F=YES, J=NO","ts3x1u1azq","0","85","85","85","","","","","","","","","","","","","","","",""
"null","audio/cloud1.wav","null","audio-keyboard-response","344","2.1.0","806764","F=YES, J=NO","ts3x1u1azq","0","85","85","85","","","","","","","","","","","","","","","",""
"520","
          <p id=""word"" style=""font-size: 40px;"">scrap</p>
          <p style=""font-size: 16px;"">F = YES &nbsp;&nbsp;&nbsp; J = NO</p>
        ","f","html-keyboard-response","345","2.1.0","807286","F=YES, J=NO","ts3x1u1azq","0","85","85","85","","","","","","","","","scrap","cloud1","unrelated","experimental","f","true","",""
"null","<p style=""font-size: 50px;"">+</p>","null","html-keyboard-response","346","2.1.0","807591","F=YES, J=NO","ts3x1u1azq","0","85","85","85","","","","","","","","","","","","","","","",""
"null","audio/beep-329314.mp3","null","audio-keyboard-response","347","2.1.0","809116","F=YES, J=NO","ts3x1u1azq","0","85","85","85","","","","","","","","","","","","","","","",""
"null","audio/holiday1.wav","null","audio-keyboard-response","348","2.1.0","809765","F=YES, J=NO","ts3x1u1azq","0","85","85","85","","","","","","","","","","","","","","","",""
"709","
          <p id=""word"" style=""font-size: 40px;"">drivets</p>
          <p style=""font-size: 16px;"">F = YES &nbsp;&nbsp;&nbsp; J = NO</p>
        ","j","html-keyboard-response","349","2.1.0","810476","F=YES, J=NO","ts3x1u1azq","0","85","85","85","","","","","","","","","drivets","holiday1","pseudoword","pseudoword","j","true","",""
"null","<p style=""font-size: 50px;"">+</p>","null","html-keyboard-response","350","2.1.0","810782","F=YES, J=NO","ts3x1u1azq","0","85","85","85","","","","","","","","","","","","","","","",""
"null","audio/beep-329314.mp3","null","audio-keyboard-response","351","2.1.0","812316","F=YES, J=NO","ts3x1u1azq","0","85","85","85","","","","","","","","","","","","","","","",""
"null","audio/promise1.wav","null","audio-keyboard-response","352","2.1.0","812965","F=YES, J=NO","ts3x1u1azq","0","85","85","85","","","","","","","","","","","","","","","",""
"510","
          <p id=""word"" style=""font-size: 40px;"">break</p>
          <p style=""font-size: 16px;"">F = YES &nbsp;&nbsp;&nbsp; J = NO</p>
        ","f","html-keyboard-response","353","2.1.0","813478","F=YES, J=NO","ts3x1u1azq","0","85","85","85","","","","","","","","","break","promise1","metaphor","experimental","f","true","",""
"null","<p style=""font-size: 50px;"">+</p>","null","html-keyboard-response","354","2.1.0","813793","F=YES, J=NO","ts3x1u1azq","0","85","85","85","","","","","","","","","","","","","","","",""
"null","audio/beep-329314.mp3","null","audio-keyboard-response","355","2.1.0","815314","F=YES, J=NO","ts3x1u1azq","0","85","85","85","","","","","","","","","","","","","","","",""
"null","audio/card1.wav","null","audio-keyboard-response","356","2.1.0","816005","F=YES, J=NO","ts3x1u1azq","0","85","85","85","","","","","","","","","","","","","","","",""
"473","
          <p id=""word"" style=""font-size: 40px;"">land</p>
          <p style=""font-size: 16px;"">F = YES &nbsp;&nbsp;&nbsp; J = NO</p>
        ","f","html-keyboard-response","357","2.1.0","816480","F=YES, J=NO","ts3x1u1azq","0","85","85","85","","","","","","","","","land","card1","unrelated","experimental","f","true","",""
"null","<p style=""font-size: 50px;"">+</p>","null","html-keyboard-response","358","2.1.0","816785","F=YES, J=NO","ts3x1u1azq","0","85","85","85","","","","","","","","","","","","","","","",""
"null","audio/beep-329314.mp3","null","audio-keyboard-response","359","2.1.0","818315","F=YES, J=NO","ts3x1u1azq","0","85","85","85","","","","","","","","","","","","","","","",""
"null","audio/gossip1.wav","null","audio-keyboard-response","360","2.1.0","819085","F=YES, J=NO","ts3x1u1azq","0","85","85","85","","","","","","","","","","","","","","","",""
"629","
          <p id=""word"" style=""font-size: 40px;"">camerish</p>
          <p style=""font-size: 16px;"">F = YES &nbsp;&nbsp;&nbsp; J = NO</p>
        ","j","html-keyboard-response","361","2.1.0","819716","F=YES, J=NO","ts3x1u1azq","0","85","85","85","","","","","","","","","camerish","gossip1","pseudoword","pseudoword","j","true","",""
"1446","<p>Excellent! You have finished block 3 of 8.</p>
                     <p>Feel free to take a 30 second break.</p>
                     <p>Press any key when you're ready to continue.</p>"," ","html-keyboard-response","362","2.1.0","821163","F=YES, J=NO","ts3x1u1azq","0","85","85","85","","","","","","","","","","","","","","","",""
"1060","<p>Starting main block 4 of 8. Press any key to continue.</p>"," ","html-keyboard-response","363","2.1.0","822226","F=YES, J=NO","ts3x1u1azq","0","85","85","85","","","","","","","","","","","","","","","",""
"null","<p style=""font-size: 50px;"">+</p>","null","html-keyboard-response","364","2.1.0","822529","F=YES, J=NO","ts3x1u1azq","0","85","85","85","","","","","","","","","","","","","","","",""
"null","audio/beep-329314.mp3","null","audio-keyboard-response","365","2.1.0","824055","F=YES, J=NO","ts3x1u1azq","0","85","85","85","","","","","","","","","","","","","","","",""
"null","audio/baby.wav","null","audio-keyboard-response","366","2.1.0","824505","F=YES, J=NO","ts3x1u1azq","0","85","85","85","","","","","","","","","","","","","","","",""
"716","
          <p id=""word"" style=""font-size: 40px;"">lift</p>
          <p style=""font-size: 16px;"">F = YES &nbsp;&nbsp;&nbsp; J = NO</p>
        ","f","html-keyboard-response","367","2.1.0","825223","F=YES, J=NO","ts3x1u1azq","0","85","85","85","","","","","","","","","lift","baby","filler","filler","f","true","",""
"null","<p style=""font-size: 50px;"">+</p>","null","html-keyboard-response","368","2.1.0","825540","F=YES, J=NO","ts3x1u1azq","0","85","85","85","","","","","","","","","","","","","","","",""
"null","audio/beep-329314.mp3","null","audio-keyboard-response","369","2.1.0","827075","F=YES, J=NO","ts3x1u1azq","0","85","85","85","","","","","","","","","","","","","","","",""
"null","audio/neck.wav","null","audio-keyboard-response","370","2.1.0","827665","F=YES, J=NO","ts3x1u1azq","0","85","85","85","","","","","","","","","","","","","","","",""
"782","
          <p id=""word"" style=""font-size: 40px;"">werling</p>
          <p style=""font-size: 16px;"">F = YES &nbsp;&nbsp;&nbsp; J = NO</p>
        ","j","html-keyboard-response","371","2.1.0","828449","F=YES, J=NO","ts3x1u1azq","0","85","85","85","","","","","","","","","werling","neck","pseudoword","pseudoword","j","true","",""
"null","<p style=""font-size: 50px;"">+</p>","null","html-keyboard-response","372","2.1.0","828766","F=YES, J=NO","ts3x1u1azq","0","85","85","85","","","","","","","","","","","","","","","",""
"null","audio/beep-329314.mp3","null","audio-keyboard-response","373","2.1.0","830296","F=YES, J=NO","ts3x1u1azq","0","85","85","85","","","","","","","","","","","","","","","",""
"null","audio/empire.wav","null","audio-keyboard-response","374","2.1.0","830944","F=YES, J=NO","ts3x1u1azq","0","85","85","85","","","","","","","","","","","","","","","",""
"1015","
          <p id=""word"" style=""font-size: 40px;"">slorby</p>
          <p style=""font-size: 16px;"">F = YES &nbsp;&nbsp;&nbsp; J = NO</p>
        ","f","html-keyboard-response","375","2.1.0","831959","F=YES, J=NO","ts3x1u1azq","0","85","85","85","","","","","","","","","slorby","empire","pseudoword","pseudoword","j","false","",""
"null","<p style=""font-size: 50px;"">+</p>","null","html-keyboard-response","376","2.1.0","832274","F=YES, J=NO","ts3x1u1azq","0","85","85","85","","","","","","","","","","","","","","","",""
"null","audio/beep-329314.mp3","null","audio-keyboard-response","377","2.1.0","833815","F=YES, J=NO","ts3x1u1azq","0","85","85","85","","","","","","","","","","","","","","","",""
"null","audio/desire.wav","null","audio-keyboard-response","378","2.1.0","834445","F=YES, J=NO","ts3x1u1azq","0","85","85","85","","","","","","","","","","","","","","","",""
"535","
          <p id=""word"" style=""font-size: 40px;"">open</p>
          <p style=""font-size: 16px;"">F = YES &nbsp;&nbsp;&nbsp; J = NO</p>
        ","f","html-keyboard-response","379","2.1.0","834982","F=YES, J=NO","ts3x1u1azq","0","85","85","85","","","","","","","","","open","desire","unrelated","experimental","f","true","",""
"null","<p style=""font-size: 50px;"">+</p>","null","html-keyboard-response","380","2.1.0","835297","F=YES, J=NO","ts3x1u1azq","0","85","85","85","","","","","","","","","","","","","","","",""
"null","audio/beep-329314.mp3","null","audio-keyboard-response","381","2.1.0","836835","F=YES, J=NO","ts3x1u1azq","0","85","85","85","","","","","","","","","","","","","","","",""
"null","audio/roof1.wav","null","audio-keyboard-response","382","2.1.0","837425","F=YES, J=NO","ts3x1u1azq","0","85","85","85","","","","","","","","","","","","","","","",""
"809","
          <p id=""word"" style=""font-size: 40px;"">wronb</p>
          <p style=""font-size: 16px;"">F = YES &nbsp;&nbsp;&nbsp; J = NO</p>
        ","j","html-keyboard-response","383","2.1.0","838236","F=YES, J=NO","ts3x1u1azq","0","85","85","85","","","","","","","","","wronb","roof1","pseudoword","pseudoword","j","true","",""
"null","<p style=""font-size: 50px;"">+</p>","null","html-keyboard-response","384","2.1.0","838543","F=YES, J=NO","ts3x1u1azq","0","85","85","85","","","","","","","","","","","","","","","",""
"null","audio/beep-329314.mp3","null","audio-keyboard-response","385","2.1.0","840075","F=YES, J=NO","ts3x1u1azq","0","85","85","85","","","","","","","","","","","","","","","",""
"null","audio/ankle1.wav","null","audio-keyboard-response","386","2.1.0","840745","F=YES, J=NO","ts3x1u1azq","0","85","85","85","","","","","","","","","","","","","","","",""
"1093","
          <p id=""word"" style=""font-size: 40px;"">switm</p>
          <p style=""font-size: 16px;"">F = YES &nbsp;&nbsp;&nbsp; J = NO</p>
        ","j","html-keyboard-response","387","2.1.0","841840","F=YES, J=NO","ts3x1u1azq","0","85","85","85","","","","","","","","","switm","ankle1","pseudoword","pseudoword","j","true","",""
"null","<p style=""font-size: 50px;"">+</p>","null","html-keyboard-response","388","2.1.0","842149","F=YES, J=NO","ts3x1u1azq","0","85","85","85","","","","","","","","","","","","","","","",""
"null","audio/beep-329314.mp3","null","audio-keyboard-response","389","2.1.0","843674","F=YES, J=NO","ts3x1u1azq","0","85","85","85","","","","","","","","","","","","","","","",""
"null","audio/plot1.wav","null","audio-keyboard-response","390","2.1.0","844204","F=YES, J=NO","ts3x1u1azq","0","85","85","85","","","","","","","","","","","","","","","",""
"907","
          <p id=""word"" style=""font-size: 40px;"">glenter</p>
          <p style=""font-size: 16px;"">F = YES &nbsp;&nbsp;&nbsp; J = NO</p>
