"rt","stimulus","response","trial_type","trial_index","plugin_version","time_elapsed","response_mapping","subject_id","list_index","lextale_score","lextale_word_score","lextale_nonword_score","success","timeout","failed_images","failed_audio","failed_video","task","isWord","isDummy","target","prime","prime_type","stimulus_type","correct_response","correct","section","question_order"
"53244","
    <div style=""max-width: 800px; margin: auto; text-align: left;"">
      <h2>STANFORD UNIVERSITY</h2>
      <h3>Research Information Sheet</h3>
      <p><strong>Protocol Director:</strong> Robert Hawkins<br>
      <strong>Protocol Title:</strong> Communication and social cognition in natural audiovisual contexts<br>
      <strong>IRB#:</strong> 77226</p>

      <p><strong>DESCRIPTION:</strong> You are invited to participate in a research study about language and communication. The purpose of the research is to understand how you interact and communicate with other people in naturalistic settings as a fluent English speaker. This research will be conducted through the Prolific platform, including participants from the US, UK, and Canada. If you decide to participate in this research, you will play a communication game in a group with one or more partners.</p>

      <p><strong>TIME INVOLVEMENT:</strong> The task will last the amount of time advertised on Prolific. You are free to withdraw from the study at any time.</p>

      <p><strong>RISKS AND BENEFITS:</strong> You may become frustrated if your partner gets distracted, or experience discomfort if other participants in your group send text that is inappropriate for the task. We ask you to please be respectful of other participants you might be interacting with to mitigate these risks. You may also experience discomfort when being asked to discuss or challenge emotionally salient political beliefs. Study data will be stored securely, in compliance with Stanford University standards, minimizing the risk of confidentiality breach. This study advances our scientific understanding of how people communicate and collaborate in naturalistic settings. This study may lead to further insights about what can go wrong in teamwork, suggest potential interventions to overcome these barriers, and help to develop assistive technologies that collaborate with human partners. We cannot and do not guarantee or promise that you will receive any benefits from this study.</p>

      <p><strong>PAYMENTS:</strong> You will receive payment in the amount advertised on Prolific. If you do not complete this study, you will receive prorated payment based on the time that you have spent. Additionally, you may be eligible for bonus payments as described in the instructions.</p>

      <p><strong>PARTICIPANT’S RIGHTS:</strong> If you have read this form and have decided to participate in this project, please understand your participation is voluntary and you have the right to withdraw your consent or discontinue participation at any time without penalty or loss of benefits to which you are otherwise entitled. The alternative is not to participate. You have the right to refuse to answer particular questions. The results of this research study may be presented at scientific or professional meetings or published in scientific journals. Your individual privacy will be maintained in all published and written data resulting from the study. In accordance with scientific norms, the data from this study may be used or shared with other researchers for future research (after removing personally identifying information) without additional consent from you.</p>

      <p><strong>CONTACT INFORMATION:</strong><br>
      Questions: If you have any questions, concerns or complaints about this research, its procedures, risks and benefits, contact the Protocol Director, Robert Hawkins (<a href=""mailto:rdhawkins@stanford.edu"">rdhawkins@stanford.edu</a>, 217-549-6923).<br>
      Independent Contact: If you are not satisfied with how this study is being conducted, or if you have any concerns, complaints, or general questions about the research or your rights as a participant, please contact the Stanford Institutional Review Board (IRB) to speak to someone independent of the research team at 650-723-2480 or toll free at 1-866-680-2906, or email at <a href=""mailto:irbnon-med@stanford.edu"">irbnon-med@stanford.edu</a>. You can also write to the Stanford IRB, Stanford University, 1705 El Camino Real, Palo Alto, CA 94306.</p>

      <p><strong>Please save or print a copy of this page for your records.</strong></p>
      <p>If you agree to participate in this research, click ""Continue"" below.</p>
    </div>
  ","0","html-button-response","0","2.1.0","53262","J=YES, F=NO","umcuhysdj5","1","60","80","40","","","","","","","","","","","","","","","",""
"18798","
    <div style=""max-width: 800px; margin: auto; text-align: left;"">
      <h2>Welcome!</h2>
      <p>Thank you for participating in this study. The experiment consists of three parts:</p>
      <ol>
        <li>An English vocabulary test</li>
        <li>A main task in which you will hear and see words, and decide whether the written word is a real English word</li>
        <li>A brief survey about your background</li>
      </ol>
      <p>Each part will be introduced before it begins.</p>
      <p>Please make sure you are in a quiet environment and can hear audio clearly for the final task.</p>
      <p style=""margin-top: 2em;"">Press any key to begin.</p>
    </div>
  "," ","html-keyboard-response","1","2.1.0","72064","J=YES, F=NO","umcuhysdj5","1","60","80","40","","","","","","","","","","","","","","","",""
"","","","preload","2","2.1.0","78439","J=YES, F=NO","umcuhysdj5","1","60","80","40","true","false","[]","[]","[]","","","","","","","","","","",""
"3522","
    <div style=""max-width: 800px; margin: auto; text-align: left;"">
      <h2>Part 1: Vocabulary Test</h2>
      <p>You will now complete the first part of the study: a short English vocabulary test.</p>
      <p>This test is called <strong>LexTALE</strong> and helps us get a general sense of your English proficiency.</p>
      <p style=""margin-top: 2em;"">Press any key to continue.</p>
    </div>
  "," ","html-keyboard-response","3","2.1.0","81963","J=YES, F=NO","umcuhysdj5","1","60","80","40","","","","","","","","","","","","","","","",""
"10305","
    <div style=""max-width: 800px; margin: auto; text-align: left;"">
      <h2>LexTALE Vocabulary Test</h2>
      <p>In this test, you will see a series of letter strings—one at a time.</p>
      <p>Your task is to decide whether each string is a real English word.</p>
      <p><strong>Key responses:</strong></p>
      <ul>
        <li><strong>J</strong> = YES (real English word)</li>
        <li><strong>F</strong> = NO (not a real English word)</li>
      </ul>
      <p>There is no time limit, but please try to be accurate.</p>
      <p style=""margin-top: 2em;"">Press any key to begin.</p>
    </div>
  ","j","html-keyboard-response","4","2.1.0","92272","J=YES, F=NO","umcuhysdj5","1","60","80","40","","","","","","","","","","","","","","","",""
"3227","
  <p style=""font-size: 40px;"">platery</p>
  <p style=""font-size: 16px;"">J = YES &nbsp;&nbsp;&nbsp; F = NO</p>
","j","html-keyboard-response","5","2.1.0","95501","J=YES, F=NO","umcuhysdj5","1","60","80","40","","","","","","lextale","false","true","","","","","","","",""
"1306","
  <p style=""font-size: 40px;"">denial</p>
  <p style=""font-size: 16px;"">J = YES &nbsp;&nbsp;&nbsp; F = NO</p>
","j","html-keyboard-response","6","2.1.0","96809","J=YES, F=NO","umcuhysdj5","1","60","80","40","","","","","","lextale","true","true","","","","","","","",""
"3597","
  <p style=""font-size: 40px;"">marrit</p>
  <p style=""font-size: 16px;"">J = YES &nbsp;&nbsp;&nbsp; F = NO</p>
","f","html-keyboard-response","7","2.1.0","100410","J=YES, F=NO","umcuhysdj5","1","60","80","40","","","","","","lextale","false","true","","","","","","","",""
"1069","
  <p style=""font-size: 40px;"">bottle</p>
  <p style=""font-size: 16px;"">J = YES &nbsp;&nbsp;&nbsp; F = NO</p>
","j","html-keyboard-response","8","2.1.0","101480","J=YES, F=NO","umcuhysdj5","1","60","80","40","","","","","","lextale","true","false","","","","","","","",""
"3804","
  <p style=""font-size: 40px;"">birst</p>
  <p style=""font-size: 16px;"">J = YES &nbsp;&nbsp;&nbsp; F = NO</p>
","j","html-keyboard-response","9","2.1.0","105286","J=YES, F=NO","umcuhysdj5","1","60","80","40","","","","","","lextale","false","false","","","","","","","",""
"1954","
  <p style=""font-size: 40px;"">envy</p>
  <p style=""font-size: 16px;"">J = YES &nbsp;&nbsp;&nbsp; F = NO</p>
","j","html-keyboard-response","10","2.1.0","107244","J=YES, F=NO","umcuhysdj5","1","60","80","40","","","","","","lextale","true","false","","","","","","","",""
"3281","
  <p style=""font-size: 40px;"">brang</p>
  <p style=""font-size: 16px;"">J = YES &nbsp;&nbsp;&nbsp; F = NO</p>
","f","html-keyboard-response","11","2.1.0","110528","J=YES, F=NO","umcuhysdj5","1","60","80","40","","","","","","lextale","false","false","","","","","","","",""
"2530","
  <p style=""font-size: 40px;"">huge</p>
  <p style=""font-size: 16px;"">J = YES &nbsp;&nbsp;&nbsp; F = NO</p>
","j","html-keyboard-response","12","2.1.0","113060","J=YES, F=NO","umcuhysdj5","1","60","80","40","","","","","","lextale","true","false","","","","","","","",""
"4334","
  <p style=""font-size: 40px;"">plove</p>
  <p style=""font-size: 16px;"">J = YES &nbsp;&nbsp;&nbsp; F = NO</p>
","j","html-keyboard-response","13","2.1.0","117399","J=YES, F=NO","umcuhysdj5","1","60","80","40","","","","","","lextale","false","false","","","","","","","",""
"986","
  <p style=""font-size: 40px;"">border</p>
  <p style=""font-size: 16px;"">J = YES &nbsp;&nbsp;&nbsp; F = NO</p>
","j","html-keyboard-response","14","2.1.0","118387","J=YES, F=NO","umcuhysdj5","1","60","80","40","","","","","","lextale","true","false","","","","","","","",""
"2144","
  <p style=""font-size: 40px;"">flimsy</p>
  <p style=""font-size: 16px;"">J = YES &nbsp;&nbsp;&nbsp; F = NO</p>
","f","html-keyboard-response","15","2.1.0","120532","J=YES, F=NO","umcuhysdj5","1","60","80","40","","","","","","lextale","true","false","","","","","","","",""
"1150","
  <p style=""font-size: 40px;"">drain</p>
  <p style=""font-size: 16px;"">J = YES &nbsp;&nbsp;&nbsp; F = NO</p>
","j","html-keyboard-response","16","2.1.0","121685","J=YES, F=NO","umcuhysdj5","1","60","80","40","","","","","","lextale","true","false","","","","","","","",""
"192","
  <p style=""font-size: 40px;"">twindle</p>
  <p style=""font-size: 16px;"">J = YES &nbsp;&nbsp;&nbsp; F = NO</p>
","j","html-keyboard-response","17","2.1.0","121878","J=YES, F=NO","umcuhysdj5","1","60","80","40","","","","","","lextale","false","false","","","","","","","",""
"1165","
  <p style=""font-size: 40px;"">propose</p>
  <p style=""font-size: 16px;"">J = YES &nbsp;&nbsp;&nbsp; F = NO</p>
","j","html-keyboard-response","18","2.1.0","123045","J=YES, F=NO","umcuhysdj5","1","60","80","40","","","","","","lextale","true","false","","","","","","","",""
"2085","
  <p style=""font-size: 40px;"">forlay</p>
  <p style=""font-size: 16px;"">J = YES &nbsp;&nbsp;&nbsp; F = NO</p>
","f","html-keyboard-response","19","2.1.0","125134","J=YES, F=NO","umcuhysdj5","1","60","80","40","","","","","","lextale","false","false","","","","","","","",""
"1259","
  <p style=""font-size: 40px;"">tenant</p>
  <p style=""font-size: 16px;"">J = YES &nbsp;&nbsp;&nbsp; F = NO</p>
","j","html-keyboard-response","20","2.1.0","126396","J=YES, F=NO","umcuhysdj5","1","60","80","40","","","","","","lextale","true","false","","","","","","","",""
"1330","
  <p style=""font-size: 40px;"">strain</p>
  <p style=""font-size: 16px;"">J = YES &nbsp;&nbsp;&nbsp; F = NO</p>
","j","html-keyboard-response","21","2.1.0","127726","J=YES, F=NO","umcuhysdj5","1","60","80","40","","","","","","lextale","true","false","","","","","","","",""
"2038","
  <p style=""font-size: 40px;"">holster</p>
  <p style=""font-size: 16px;"">J = YES &nbsp;&nbsp;&nbsp; F = NO</p>
","j","html-keyboard-response","22","2.1.0","129765","J=YES, F=NO","umcuhysdj5","1","60","80","40","","","","","","lextale","true","false","","","","","","","",""
"1367","
  <p style=""font-size: 40px;"">hinder</p>
  <p style=""font-size: 16px;"">J = YES &nbsp;&nbsp;&nbsp; F = NO</p>
","j","html-keyboard-response","23","2.1.0","131133","J=YES, F=NO","umcuhysdj5","1","60","80","40","","","","","","lextale","true","false","","","","","","","",""
"2678","
  <p style=""font-size: 40px;"">swindle</p>
  <p style=""font-size: 16px;"">J = YES &nbsp;&nbsp;&nbsp; F = NO</p>
","j","html-keyboard-response","24","2.1.0","133812","J=YES, F=NO","umcuhysdj5","1","60","80","40","","","","","","lextale","true","false","","","","","","","",""
"2057","
  <p style=""font-size: 40px;"">nuder</p>
  <p style=""font-size: 16px;"">J = YES &nbsp;&nbsp;&nbsp; F = NO</p>
","j","html-keyboard-response","25","2.1.0","135871","J=YES, F=NO","umcuhysdj5","1","60","80","40","","","","","","lextale","false","false","","","","","","","",""
"926","
  <p style=""font-size: 40px;"">pillow</p>
  <p style=""font-size: 16px;"">J = YES &nbsp;&nbsp;&nbsp; F = NO</p>
","j","html-keyboard-response","26","2.1.0","136798","J=YES, F=NO","umcuhysdj5","1","60","80","40","","","","","","lextale","true","false","","","","","","","",""
"1375","
  <p style=""font-size: 40px;"">shumble</p>
  <p style=""font-size: 16px;"">J = YES &nbsp;&nbsp;&nbsp; F = NO</p>
","j","html-keyboard-response","27","2.1.0","138175","J=YES, F=NO","umcuhysdj5","1","60","80","40","","","","","","lextale","false","false","","","","","","","",""
"773","
  <p style=""font-size: 40px;"">thirst</p>
  <p style=""font-size: 16px;"">J = YES &nbsp;&nbsp;&nbsp; F = NO</p>
","j","html-keyboard-response","28","2.1.0","138949","J=YES, F=NO","umcuhysdj5","1","60","80","40","","","","","","lextale","true","false","","","","","","","",""
"2005","
  <p style=""font-size: 40px;"">unsail</p>
  <p style=""font-size: 16px;"">J = YES &nbsp;&nbsp;&nbsp; F = NO</p>
","j","html-keyboard-response","29","2.1.0","140954","J=YES, F=NO","umcuhysdj5","1","60","80","40","","","","","","lextale","false","false","","","","","","","",""
"894","
  <p style=""font-size: 40px;"">rifle</p>
  <p style=""font-size: 16px;"">J = YES &nbsp;&nbsp;&nbsp; F = NO</p>
","j","html-keyboard-response","30","2.1.0","141849","J=YES, F=NO","umcuhysdj5","1","60","80","40","","","","","","lextale","true","false","","","","","","","",""
"1079","
  <p style=""font-size: 40px;"">mush</p>
  <p style=""font-size: 16px;"">J = YES &nbsp;&nbsp;&nbsp; F = NO</p>
","j","html-keyboard-response","31","2.1.0","142930","J=YES, F=NO","umcuhysdj5","1","60","80","40","","","","","","lextale","false","false","","","","","","","",""
"795","
  <p style=""font-size: 40px;"">drench</p>
  <p style=""font-size: 16px;"">J = YES &nbsp;&nbsp;&nbsp; F = NO</p>
","j","html-keyboard-response","32","2.1.0","143726","J=YES, F=NO","umcuhysdj5","1","60","80","40","","","","","","lextale","true","false","","","","","","","",""
"2257","
  <p style=""font-size: 40px;"">snirt</p>
  <p style=""font-size: 16px;"">J = YES &nbsp;&nbsp;&nbsp; F = NO</p>
","f","html-keyboard-response","33","2.1.0","145985","J=YES, F=NO","umcuhysdj5","1","60","80","40","","","","","","lextale","false","false","","","","","","","",""
"1662","
  <p style=""font-size: 40px;"">bitter</p>
  <p style=""font-size: 16px;"">J = YES &nbsp;&nbsp;&nbsp; F = NO</p>
","j","html-keyboard-response","34","2.1.0","147648","J=YES, F=NO","umcuhysdj5","1","60","80","40","","","","","","lextale","true","false","","","","","","","",""
"1022","
  <p style=""font-size: 40px;"">pliff</p>
  <p style=""font-size: 16px;"">J = YES &nbsp;&nbsp;&nbsp; F = NO</p>
","j","html-keyboard-response","35","2.1.0","148674","J=YES, F=NO","umcuhysdj5","1","60","80","40","","","","","","lextale","false","false","","","","","","","",""
"513","
  <p style=""font-size: 40px;"">tablet</p>
  <p style=""font-size: 16px;"">J = YES &nbsp;&nbsp;&nbsp; F = NO</p>
","j","html-keyboard-response","36","2.1.0","149188","J=YES, F=NO","umcuhysdj5","1","60","80","40","","","","","","lextale","true","false","","","","","","","",""
"806","
  <p style=""font-size: 40px;"">glimmer</p>
  <p style=""font-size: 16px;"">J = YES &nbsp;&nbsp;&nbsp; F = NO</p>
","j","html-keyboard-response","37","2.1.0","149995","J=YES, F=NO","umcuhysdj5","1","60","80","40","","","","","","lextale","true","false","","","","","","","",""
"4089","
  <p style=""font-size: 40px;"">slink</p>
  <p style=""font-size: 16px;"">J = YES &nbsp;&nbsp;&nbsp; F = NO</p>
","j","html-keyboard-response","38","2.1.0","154085","J=YES, F=NO","umcuhysdj5","1","60","80","40","","","","","","lextale","true","false","","","","","","","",""
"513","
  <p style=""font-size: 40px;"">clever</p>
  <p style=""font-size: 16px;"">J = YES &nbsp;&nbsp;&nbsp; F = NO</p>
","j","html-keyboard-response","39","2.1.0","154599","J=YES, F=NO","umcuhysdj5","1","60","80","40","","","","","","lextale","true","false","","","","","","","",""
"2190","
  <p style=""font-size: 40px;"">grum</p>
  <p style=""font-size: 16px;"">J = YES &nbsp;&nbsp;&nbsp; F = NO</p>
","f","html-keyboard-response","40","2.1.0","156791","J=YES, F=NO","umcuhysdj5","1","60","80","40","","","","","","lextale","false","false","","","","","","","",""
"1237","
  <p style=""font-size: 40px;"">string</p>
  <p style=""font-size: 16px;"">J = YES &nbsp;&nbsp;&nbsp; F = NO</p>
","j","html-keyboard-response","41","2.1.0","158030","J=YES, F=NO","umcuhysdj5","1","60","80","40","","","","","","lextale","true","false","","","","","","","",""
"3595","
  <p style=""font-size: 40px;"">plim</p>
  <p style=""font-size: 16px;"">J = YES &nbsp;&nbsp;&nbsp; F = NO</p>
","f","html-keyboard-response","42","2.1.0","161628","J=YES, F=NO","umcuhysdj5","1","60","80","40","","","","","","lextale","false","false","","","","","","","",""
"742","
  <p style=""font-size: 40px;"">cable</p>
  <p style=""font-size: 16px;"">J = YES &nbsp;&nbsp;&nbsp; F = NO</p>
","j","html-keyboard-response","43","2.1.0","162371","J=YES, F=NO","umcuhysdj5","1","60","80","40","","","","","","lextale","true","false","","","","","","","",""
"3485","
  <p style=""font-size: 40px;"">shrivel</p>
  <p style=""font-size: 16px;"">J = YES &nbsp;&nbsp;&nbsp; F = NO</p>
","j","html-keyboard-response","44","2.1.0","165857","J=YES, F=NO","umcuhysdj5","1","60","80","40","","","","","","lextale","true","false","","","","","","","",""
"951","
  <p style=""font-size: 40px;"">tarnish</p>
  <p style=""font-size: 16px;"">J = YES &nbsp;&nbsp;&nbsp; F = NO</p>
","j","html-keyboard-response","45","2.1.0","166810","J=YES, F=NO","umcuhysdj5","1","60","80","40","","","","","","lextale","true","false","","","","","","","",""
"1527","
  <p style=""font-size: 40px;"">blim</p>
  <p style=""font-size: 16px;"">J = YES &nbsp;&nbsp;&nbsp; F = NO</p>
","f","html-keyboard-response","46","2.1.0","168339","J=YES, F=NO","umcuhysdj5","1","60","80","40","","","","","","lextale","false","false","","","","","","","",""
"2846","
  <p style=""font-size: 40px;"">stifle</p>
  <p style=""font-size: 16px;"">J = YES &nbsp;&nbsp;&nbsp; F = NO</p>
","f","html-keyboard-response","47","2.1.0","171186","J=YES, F=NO","umcuhysdj5","1","60","80","40","","","","","","lextale","true","false","","","","","","","",""
"1560","
  <p style=""font-size: 40px;"">bint</p>
  <p style=""font-size: 16px;"">J = YES &nbsp;&nbsp;&nbsp; F = NO</p>
","f","html-keyboard-response","48","2.1.0","172748","J=YES, F=NO","umcuhysdj5","1","60","80","40","","","","","","lextale","false","false","","","","","","","",""
"792","
  <p style=""font-size: 40px;"">purple</p>
  <p style=""font-size: 16px;"">J = YES &nbsp;&nbsp;&nbsp; F = NO</p>
","j","html-keyboard-response","49","2.1.0","173542","J=YES, F=NO","umcuhysdj5","1","60","80","40","","","","","","lextale","true","false","","","","","","","",""
"898","
  <p style=""font-size: 40px;"">wriggle</p>
  <p style=""font-size: 16px;"">J = YES &nbsp;&nbsp;&nbsp; F = NO</p>
","j","html-keyboard-response","50","2.1.0","174441","J=YES, F=NO","umcuhysdj5","1","60","80","40","","","","","","lextale","true","false","","","","","","","",""
"912","
  <p style=""font-size: 40px;"">mangle</p>
  <p style=""font-size: 16px;"">J = YES &nbsp;&nbsp;&nbsp; F = NO</p>
","j","html-keyboard-response","51","2.1.0","175356","J=YES, F=NO","umcuhysdj5","1","60","80","40","","","","","","lextale","true","false","","","","","","","",""
"8477","
  <p style=""font-size: 40px;"">shramp</p>
  <p style=""font-size: 16px;"">J = YES &nbsp;&nbsp;&nbsp; F = NO</p>
","f","html-keyboard-response","52","2.1.0","183834","J=YES, F=NO","umcuhysdj5","1","60","80","40","","","","","","lextale","false","false","","","","","","","",""
"1480","
  <p style=""font-size: 40px;"">flirt</p>
  <p style=""font-size: 16px;"">J = YES &nbsp;&nbsp;&nbsp; F = NO</p>
","j","html-keyboard-response","53","2.1.0","185317","J=YES, F=NO","umcuhysdj5","1","60","80","40","","","","","","lextale","true","false","","","","","","","",""
"1222","
  <p style=""font-size: 40px;"">frip</p>
  <p style=""font-size: 16px;"">J = YES &nbsp;&nbsp;&nbsp; F = NO</p>
","j","html-keyboard-response","54","2.1.0","186541","J=YES, F=NO","umcuhysdj5","1","60","80","40","","","","","","lextale","false","false","","","","","","","",""
"911","
  <p style=""font-size: 40px;"">tangle</p>
  <p style=""font-size: 16px;"">J = YES &nbsp;&nbsp;&nbsp; F = NO</p>
","j","html-keyboard-response","55","2.1.0","187454","J=YES, F=NO","umcuhysdj5","1","60","80","40","","","","","","lextale","true","false","","","","","","","",""
"914","
  <p style=""font-size: 40px;"">crumble</p>
  <p style=""font-size: 16px;"">J = YES &nbsp;&nbsp;&nbsp; F = NO</p>
","j","html-keyboard-response","56","2.1.0","188370","J=YES, F=NO","umcuhysdj5","1","60","80","40","","","","","","lextale","true","false","","","","","","","",""
"790","
  <p style=""font-size: 40px;"">wrinkle</p>
  <p style=""font-size: 16px;"">J = YES &nbsp;&nbsp;&nbsp; F = NO</p>
","j","html-keyboard-response","57","2.1.0","189164","J=YES, F=NO","umcuhysdj5","1","60","80","40","","","","","","lextale","true","false","","","","","","","",""
"3409","
  <p style=""font-size: 40px;"">slumb</p>
  <p style=""font-size: 16px;"">J = YES &nbsp;&nbsp;&nbsp; F = NO</p>
","j","html-keyboard-response","58","2.1.0","192575","J=YES, F=NO","umcuhysdj5","1","60","80","40","","","","","","lextale","false","false","","","","","","","",""
"753","
  <p style=""font-size: 40px;"">jungle</p>
  <p style=""font-size: 16px;"">J = YES &nbsp;&nbsp;&nbsp; F = NO</p>
","j","html-keyboard-response","59","2.1.0","193330","J=YES, F=NO","umcuhysdj5","1","60","80","40","","","","","","lextale","true","false","","","","","","","",""
"2723","
  <p style=""font-size: 40px;"">frolick</p>
  <p style=""font-size: 16px;"">J = YES &nbsp;&nbsp;&nbsp; F = NO</p>
","j","html-keyboard-response","60","2.1.0","196054","J=YES, F=NO","umcuhysdj5","1","60","80","40","","","","","","lextale","false","false","","","","","","","",""
"3822","
      <h2>LexTALE Test Completed</h2>
      <p>Your LexTALE vocabulary score is: <strong>60%</strong></p>
      <p>Press any key to continue.</p>
    "," ","html-keyboard-response","61","2.1.0","199878","J=YES, F=NO","umcuhysdj5","1","60","80","40","","","","","","","","","","","","","","","",""
"10418","
    <div style=""max-width: 800px; margin: auto; text-align: left;"">
      <h2>Break Time</h2>
      <p>You have completed the first part of the study.</p>
      <p>You may take a short <strong>30-second break</strong> before continuing.</p>
      <p>When you’re ready, press any key to continue to the final task.</p>
    </div>
  "," ","html-keyboard-response","62","2.1.0","210298","J=YES, F=NO","umcuhysdj5","1","60","80","40","","","","","","","","","","","","","","","",""
"20093","
    <div style=""max-width: 800px; margin: auto; text-align: left;"">
      <h2>Part 2: Lexical Decision Task</h2>
      <p>You will now begin the second part of the study.</p>
      <p>Each trial will follow this sequence:</p>
      <ul>
        <li>A fixation cross (+) appears at the center of the screen.</li>
        <li>You will hear a short beep followed by a spoken word.</li>
        <li>A written word will appear briefly on the screen.</li>
      </ul>
      <p>Your task is to judge whether the <strong>written word</strong> is a real English word.</p>
      <p style=""margin-top: 1em;""><strong>Key responses:</strong></p>
      <ul>
        <li><strong>J</strong> = YES (real English word)</li>
        <li><strong>F</strong> = NO (not a real English word)</li>
      </ul>
      <p>Please respond as quickly and accurately as you can.</p>
      <p style=""margin-top: 2em;"">Press any key to continue.</p>
    </div>
  "," ","html-keyboard-response","63","2.1.0","230392","J=YES, F=NO","umcuhysdj5","1","60","80","40","","","","","","","","","","","","","","","",""
"6207","
    <div style=""max-width: 800px; margin: auto; text-align: left;"">
      <h2>Before You Begin</h2>
      <p>Make sure your sound is turned on.</p>
      <p>You will hear audio during each trial, but your decision should be based only on the <strong>written word</strong> you see on the screen.</p>
      <p><strong>Reminder:</strong></p>
      <ul>
        <li><strong>J</strong> = YES (real English word)</li>
        <li><strong>F</strong> = NO (not a real English word)</li>
      </ul>
      <p style=""margin-top: 2em;"">Press any key when you are ready to begin.</p>
    </div>
  ","j","html-keyboard-response","64","2.1.0","236600","J=YES, F=NO","umcuhysdj5","1","60","80","40","","","","","","","","","","","","","","","",""
"10826","
    <div style=""max-width: 800px; margin: auto; text-align: left;"">
      <h2>Part 2: Practice Trials</h2>
      <p>You will now complete a few <strong>practice trials</strong> to get familiar with the task.</p>
      <p>These trials are <strong>not scored</strong> and are only to help you get used to the format.</p>
      <p style=""margin-top: 2em;"">Press any key to begin.</p>
    </div>
  "," ","html-keyboard-response","65","2.1.0","247427","J=YES, F=NO","umcuhysdj5","1","60","80","40","","","","","","","","","","","","","","","",""
"1628","<p>Starting practice block 1 of 2. Press any key to continue.</p>"," ","html-keyboard-response","66","2.1.0","249057","J=YES, F=NO","umcuhysdj5","1","60","80","40","","","","","","","","","","","","","","","",""
"null","<p style=""font-size: 50px;"">+</p>","null","html-keyboard-response","67","2.1.0","249359","J=YES, F=NO","umcuhysdj5","1","60","80","40","","","","","","","","","","","","","","","",""
"null","audio/beep-329314.mp3","null","audio-keyboard-response","68","2.1.0","251213","J=YES, F=NO","umcuhysdj5","1","60","80","40","","","","","","","","","","","","","","","",""
"null","audio/account1.wav","null","audio-keyboard-response","69","2.1.0","251951","J=YES, F=NO","umcuhysdj5","1","60","80","40","","","","","","","","","","","","","","","",""
"1059","
          <p id=""word"" style=""font-size: 40px;"">paint</p>
          <p style=""font-size: 16px;"">J = YES &nbsp;&nbsp;&nbsp; F = NO</p>
        ","j","html-keyboard-response","70","2.1.0","253012","J=YES, F=NO","umcuhysdj5","1","60","80","40","","","","","","","","","paint","account1","filler","filler","j","true","",""
"null","<p style=""font-size: 50px;"">+</p>","null","html-keyboard-response","71","2.1.0","253318","J=YES, F=NO","umcuhysdj5","1","60","80","40","","","","","","","","","","","","","","","",""
"null","audio/beep-329314.mp3","null","audio-keyboard-response","72","2.1.0","254852","J=YES, F=NO","umcuhysdj5","1","60","80","40","","","","","","","","","","","","","","","",""
"null","audio/key1.wav","null","audio-keyboard-response","73","2.1.0","255252","J=YES, F=NO","umcuhysdj5","1","60","80","40","","","","","","","","","","","","","","","",""
"1135","
          <p id=""word"" style=""font-size: 40px;"">sminsh</p>
          <p style=""font-size: 16px;"">J = YES &nbsp;&nbsp;&nbsp; F = NO</p>
        ","f","html-keyboard-response","74","2.1.0","256390","J=YES, F=NO","umcuhysdj5","1","60","80","40","","","","","","","","","sminsh","key1","pseudoword","pseudoword","f","true","",""
"null","<p style=""font-size: 50px;"">+</p>","null","html-keyboard-response","75","2.1.0","256698","J=YES, F=NO","umcuhysdj5","1","60","80","40","","","","","","","","","","","","","","","",""
"null","audio/beep-329314.mp3","null","audio-keyboard-response","76","2.1.0","258232","J=YES, F=NO","umcuhysdj5","1","60","80","40","","","","","","","","","","","","","","","",""
"null","audio/flaw.wav","null","audio-keyboard-response","77","2.1.0","259089","J=YES, F=NO","umcuhysdj5","1","60","80","40","","","","","","","","","","","","","","","",""
"917","
          <p id=""word"" style=""font-size: 40px;"">thwool</p>
          <p style=""font-size: 16px;"">J = YES &nbsp;&nbsp;&nbsp; F = NO</p>
        ","f","html-keyboard-response","78","2.1.0","260007","J=YES, F=NO","umcuhysdj5","1","60","80","40","","","","","","","","","thwool","flaw","pseudoword","pseudoword","f","true","",""
"null","<p style=""font-size: 50px;"">+</p>","null","html-keyboard-response","79","2.1.0","260317","J=YES, F=NO","umcuhysdj5","1","60","80","40","","","","","","","","","","","","","","","",""
"null","audio/beep-329314.mp3","null","audio-keyboard-response","80","2.1.0","261850","J=YES, F=NO","umcuhysdj5","1","60","80","40","","","","","","","","","","","","","","","",""
"null","audio/bomb1.wav","null","audio-keyboard-response","81","2.1.0","262429","J=YES, F=NO","umcuhysdj5","1","60","80","40","","","","","","","","","","","","","","","",""
"531","
          <p id=""word"" style=""font-size: 40px;"">clean</p>
          <p style=""font-size: 16px;"">J = YES &nbsp;&nbsp;&nbsp; F = NO</p>
        ","j","html-keyboard-response","82","2.1.0","262962","J=YES, F=NO","umcuhysdj5","1","60","80","40","","","","","","","","","clean","bomb1","filler","filler","j","true","",""
"null","<p style=""font-size: 50px;"">+</p>","null","html-keyboard-response","83","2.1.0","263283","J=YES, F=NO","umcuhysdj5","1","60","80","40","","","","","","","","","","","","","","","",""
"null","audio/beep-329314.mp3","null","audio-keyboard-response","84","2.1.0","264812","J=YES, F=NO","umcuhysdj5","1","60","80","40","","","","","","","","","","","","","","","",""
"null","audio/tax1.wav","null","audio-keyboard-response","85","2.1.0","265672","J=YES, F=NO","umcuhysdj5","1","60","80","40","","","","","","","","","","","","","","","",""
"847","
          <p id=""word"" style=""font-size: 40px;"">snate</p>
          <p style=""font-size: 16px;"">J = YES &nbsp;&nbsp;&nbsp; F = NO</p>
        ","f","html-keyboard-response","86","2.1.0","266521","J=YES, F=NO","umcuhysdj5","1","60","80","40","","","","","","","","","snate","tax1","pseudoword","pseudoword","f","true","",""
"null","<p style=""font-size: 50px;"">+</p>","null","html-keyboard-response","87","2.1.0","266828","J=YES, F=NO","umcuhysdj5","1","60","80","40","","","","","","","","","","","","","","","",""
"null","audio/beep-329314.mp3","null","audio-keyboard-response","88","2.1.0","268352","J=YES, F=NO","umcuhysdj5","1","60","80","40","","","","","","","","","","","","","","","",""
"null","audio/sand.wav","null","audio-keyboard-response","89","2.1.0","269030","J=YES, F=NO","umcuhysdj5","1","60","80","40","","","","","","","","","","","","","","","",""
"514","
          <p id=""word"" style=""font-size: 40px;"">proted</p>
          <p style=""font-size: 16px;"">J = YES &nbsp;&nbsp;&nbsp; F = NO</p>
        ","j","html-keyboard-response","90","2.1.0","269545","J=YES, F=NO","umcuhysdj5","1","60","80","40","","","","","","","","","proted","sand","pseudoword","pseudoword","f","false","",""
"null","<p style=""font-size: 50px;"">+</p>","null","html-keyboard-response","91","2.1.0","269848","J=YES, F=NO","umcuhysdj5","1","60","80","40","","","","","","","","","","","","","","","",""
"null","audio/beep-329314.mp3","null","audio-keyboard-response","92","2.1.0","271370","J=YES, F=NO","umcuhysdj5","1","60","80","40","","","","","","","","","","","","","","","",""
"null","audio/kettle1.wav","null","audio-keyboard-response","93","2.1.0","272032","J=YES, F=NO","umcuhysdj5","1","60","80","40","","","","","","","","","","","","","","","",""
"870","
          <p id=""word"" style=""font-size: 40px;"">wrap</p>
          <p style=""font-size: 16px;"">J = YES &nbsp;&nbsp;&nbsp; F = NO</p>
        ","j","html-keyboard-response","94","2.1.0","272904","J=YES, F=NO","umcuhysdj5","1","60","80","40","","","","","","","","","wrap","kettle1","filler","filler","j","true","",""
"null","<p style=""font-size: 50px;"">+</p>","null","html-keyboard-response","95","2.1.0","273208","J=YES, F=NO","umcuhysdj5","1","60","80","40","","","","","","","","","","","","","","","",""
"null","audio/beep-329314.mp3","null","audio-keyboard-response","96","2.1.0","274733","J=YES, F=NO","umcuhysdj5","1","60","80","40","","","","","","","","","","","","","","","",""
"null","audio/arm.wav","null","audio-keyboard-response","97","2.1.0","275312","J=YES, F=NO","umcuhysdj5","1","60","80","40","","","","","","","","","","","","","","","",""
"882","
          <p id=""word"" style=""font-size: 40px;"">pigne</p>
          <p style=""font-size: 16px;"">J = YES &nbsp;&nbsp;&nbsp; F = NO</p>
        ","f","html-keyboard-response","98","2.1.0","276196","J=YES, F=NO","umcuhysdj5","1","60","80","40","","","","","","","","","pigne","arm","pseudoword","pseudoword","f","true","",""
"null","<p style=""font-size: 50px;"">+</p>","null","html-keyboard-response","99","2.1.0","276508","J=YES, F=NO","umcuhysdj5","1","60","80","40","","","","","","","","","","","","","","","",""
"null","audio/beep-329314.mp3","null","audio-keyboard-response","100","2.1.0","278050","J=YES, F=NO","umcuhysdj5","1","60","80","40","","","","","","","","","","","","","","","",""
"null","audio/pig.wav","null","audio-keyboard-response","101","2.1.0","278611","J=YES, F=NO","umcuhysdj5","1","60","80","40","","","","","","","","","","","","","","","",""
"935","
          <p id=""word"" style=""font-size: 40px;"">tirlike</p>
          <p style=""font-size: 16px;"">J = YES &nbsp;&nbsp;&nbsp; F = NO</p>
        ","f","html-keyboard-response","102","2.1.0","279549","J=YES, F=NO","umcuhysdj5","1","60","80","40","","","","","","","","","tirlike","pig","pseudoword","pseudoword","f","true","",""
"null","<p style=""font-size: 50px;"">+</p>","null","html-keyboard-response","103","2.1.0","279859","J=YES, F=NO","umcuhysdj5","1","60","80","40","","","","","","","","","","","","","","","",""
"null","audio/beep-329314.mp3","null","audio-keyboard-response","104","2.1.0","281393","J=YES, F=NO","umcuhysdj5","1","60","80","40","","","","","","","","","","","","","","","",""
"null","audio/truth1.wav","null","audio-keyboard-response","105","2.1.0","281971","J=YES, F=NO","umcuhysdj5","1","60","80","40","","","","","","","","","","","","","","","",""
"890","
          <p id=""word"" style=""font-size: 40px;"">calitom</p>
          <p style=""font-size: 16px;"">J = YES &nbsp;&nbsp;&nbsp; F = NO</p>
        ","f","html-keyboard-response","106","2.1.0","282863","J=YES, F=NO","umcuhysdj5","1","60","80","40","","","","","","","","","calitom","truth1","pseudoword","pseudoword","f","true","",""
"null","<p style=""font-size: 50px;"">+</p>","null","html-keyboard-response","107","2.1.0","283178","J=YES, F=NO","umcuhysdj5","1","60","80","40","","","","","","","","","","","","","","","",""
"null","audio/beep-329314.mp3","null","audio-keyboard-response","108","2.1.0","284711","J=YES, F=NO","umcuhysdj5","1","60","80","40","","","","","","","","","","","","","","","",""
"null","audio/budget1.wav","null","audio-keyboard-response","109","2.1.0","285552","J=YES, F=NO","umcuhysdj5","1","60","80","40","","","","","","","","","","","","","","","",""
"844","
          <p id=""word"" style=""font-size: 40px;"">sulist</p>
          <p style=""font-size: 16px;"">J = YES &nbsp;&nbsp;&nbsp; F = NO</p>
        ","f","html-keyboard-response","110","2.1.0","286397","J=YES, F=NO","umcuhysdj5","1","60","80","40","","","","","","","","","sulist","budget1","pseudoword","pseudoword","f","true","",""
"null","<p style=""font-size: 50px;"">+</p>","null","html-keyboard-response","111","2.1.0","286703","J=YES, F=NO","umcuhysdj5","1","60","80","40","","","","","","","","","","","","","","","",""
"null","audio/beep-329314.mp3","null","audio-keyboard-response","112","2.1.0","288232","J=YES, F=NO","umcuhysdj5","1","60","80","40","","","","","","","","","","","","","","","",""
"null","audio/beach1.wav","null","audio-keyboard-response","113","2.1.0","289049","J=YES, F=NO","umcuhysdj5","1","60","80","40","","","","","","","","","","","","","","","",""
"962","
          <p id=""word"" style=""font-size: 40px;"">drive</p>
          <p style=""font-size: 16px;"">J = YES &nbsp;&nbsp;&nbsp; F = NO</p>
        ","j","html-keyboard-response","114","2.1.0","290013","J=YES, F=NO","umcuhysdj5","1","60","80","40","","","","","","","","","drive","beach1","filler","filler","j","true","",""
"2890","<p>Starting practice block 2 of 2. Press any key to continue.</p>"," ","html-keyboard-response","115","2.1.0","292905","J=YES, F=NO","umcuhysdj5","1","60","80","40","","","","","","","","","","","","","","","",""
"null","<p style=""font-size: 50px;"">+</p>","null","html-keyboard-response","116","2.1.0","293218","J=YES, F=NO","umcuhysdj5","1","60","80","40","","","","","","","","","","","","","","","",""
"null","audio/beep-329314.mp3","null","audio-keyboard-response","117","2.1.0","294749","J=YES, F=NO","umcuhysdj5","1","60","80","40","","","","","","","","","","","","","","","",""
"null","audio/breath.wav","null","audio-keyboard-response","118","2.1.0","295331","J=YES, F=NO","umcuhysdj5","1","60","80","40","","","","","","","","","","","","","","","",""
"754","
          <p id=""word"" style=""font-size: 40px;"">pack</p>
          <p style=""font-size: 16px;"">J = YES &nbsp;&nbsp;&nbsp; F = NO</p>
        ","j","html-keyboard-response","119","2.1.0","296087","J=YES, F=NO","umcuhysdj5","1","60","80","40","","","","","","","","","pack","breath","filler","filler","j","true","",""
"null","<p style=""font-size: 50px;"">+</p>","null","html-keyboard-response","120","2.1.0","296408","J=YES, F=NO","umcuhysdj5","1","60","80","40","","","","","","","","","","","","","","","",""
"null","audio/beep-329314.mp3","null","audio-keyboard-response","121","2.1.0","297931","J=YES, F=NO","umcuhysdj5","1","60","80","40","","","","","","","","","","","","","","","",""
"null","audio/alarm1.wav","null","audio-keyboard-response","122","2.1.0","298531","J=YES, F=NO","umcuhysdj5","1","60","80","40","","","","","","","","","","","","","","","",""
"926","
          <p id=""word"" style=""font-size: 40px;"">lock</p>
          <p style=""font-size: 16px;"">J = YES &nbsp;&nbsp;&nbsp; F = NO</p>
        ","j","html-keyboard-response","123","2.1.0","299459","J=YES, F=NO","umcuhysdj5","1","60","80","40","","","","","","","","","lock","alarm1","filler","filler","j","true","",""
"null","<p style=""font-size: 50px;"">+</p>","null","html-keyboard-response","124","2.1.0","299778","J=YES, F=NO","umcuhysdj5","1","60","80","40","","","","","","","","","","","","","","","",""
"null","audio/beep-329314.mp3","null","audio-keyboard-response","125","2.1.0","301311","J=YES, F=NO","umcuhysdj5","1","60","80","40","","","","","","","","","","","","","","","",""
"null","audio/camera1.wav","null","audio-keyboard-response","126","2.1.0","302031","J=YES, F=NO","umcuhysdj5","1","60","80","40","","","","","","","","","","","","","","","",""
"667","
          <p id=""word"" style=""font-size: 40px;"">stir</p>
          <p style=""font-size: 16px;"">J = YES &nbsp;&nbsp;&nbsp; F = NO</p>
        ","j","html-keyboard-response","127","2.1.0","302701","J=YES, F=NO","umcuhysdj5","1","60","80","40","","","","","","","","","stir","camera1","filler","filler","j","true","",""
"null","<p style=""font-size: 50px;"">+</p>","null","html-keyboard-response","128","2.1.0","303008","J=YES, F=NO","umcuhysdj5","1","60","80","40","","","","","","","","","","","","","","","",""
"null","audio/beep-329314.mp3","null","audio-keyboard-response","129","2.1.0","304552","J=YES, F=NO","umcuhysdj5","1","60","80","40","","","","","","","","","","","","","","","",""
"null","audio/menu.wav","null","audio-keyboard-response","130","2.1.0","305151","J=YES, F=NO","umcuhysdj5","1","60","80","40","","","","","","","","","","","","","","","",""
"559","
          <p id=""word"" style=""font-size: 40px;"">slice</p>
          <p style=""font-size: 16px;"">J = YES &nbsp;&nbsp;&nbsp; F = NO</p>
        ","j","html-keyboard-response","131","2.1.0","305713","J=YES, F=NO","umcuhysdj5","1","60","80","40","","","","","","","","","slice","menu","filler","filler","j","true","",""
"null","<p style=""font-size: 50px;"">+</p>","null","html-keyboard-response","132","2.1.0","306018","J=YES, F=NO","umcuhysdj5","1","60","80","40","","","","","","","","","","","","","","","",""
"null","audio/beep-329314.mp3","null","audio-keyboard-response","133","2.1.0","307552","J=YES, F=NO","umcuhysdj5","1","60","80","40","","","","","","","","","","","","","","","",""
"null","audio/golf1.wav","null","audio-keyboard-response","134","2.1.0","308352","J=YES, F=NO","umcuhysdj5","1","60","80","40","","","","","","","","","","","","","","","",""
"871","
          <p id=""word"" style=""font-size: 40px;"">drabble</p>
          <p style=""font-size: 16px;"">J = YES &nbsp;&nbsp;&nbsp; F = NO</p>
        ","f","html-keyboard-response","135","2.1.0","309225","J=YES, F=NO","umcuhysdj5","1","60","80","40","","","","","","","","","drabble","golf1","pseudoword","pseudoword","f","true","",""
"null","<p style=""font-size: 50px;"">+</p>","null","html-keyboard-response","136","2.1.0","309528","J=YES, F=NO","umcuhysdj5","1","60","80","40","","","","","","","","","","","","","","","",""
"null","audio/beep-329314.mp3","null","audio-keyboard-response","137","2.1.0","311072","J=YES, F=NO","umcuhysdj5","1","60","80","40","","","","","","","","","","","","","","","",""
"null","audio/cave1.wav","null","audio-keyboard-response","138","2.1.0","311832","J=YES, F=NO","umcuhysdj5","1","60","80","40","","","","","","","","","","","","","","","",""
"1086","
          <p id=""word"" style=""font-size: 40px;"">blacket</p>
          <p style=""font-size: 16px;"">J = YES &nbsp;&nbsp;&nbsp; F = NO</p>
        ","f","html-keyboard-response","139","2.1.0","312920","J=YES, F=NO","umcuhysdj5","1","60","80","40","","","","","","","","","blacket","cave1","pseudoword","pseudoword","f","true","",""
"null","<p style=""font-size: 50px;"">+</p>","null","html-keyboard-response","140","2.1.0","313238","J=YES, F=NO","umcuhysdj5","1","60","80","40","","","","","","","","","","","","","","","",""
"null","audio/beep-329314.mp3","null","audio-keyboard-response","141","2.1.0","314771","J=YES, F=NO","umcuhysdj5","1","60","80","40","","","","","","","","","","","","","","","",""
"null","audio/winter.wav","null","audio-keyboard-response","142","2.1.0","315571","J=YES, F=NO","umcuhysdj5","1","60","80","40","","","","","","","","","","","","","","","",""
"1377","
          <p id=""word"" style=""font-size: 40px;"">straven</p>
          <p style=""font-size: 16px;"">J = YES &nbsp;&nbsp;&nbsp; F = NO</p>
        ","j","html-keyboard-response","143","2.1.0","316951","J=YES, F=NO","umcuhysdj5","1","60","80","40","","","","","","","","","straven","winter","pseudoword","pseudoword","f","false","",""
"null","<p style=""font-size: 50px;"">+</p>","null","html-keyboard-response","144","2.1.0","317259","J=YES, F=NO","umcuhysdj5","1","60","80","40","","","","","","","","","","","","","","","",""
"null","audio/beep-329314.mp3","null","audio-keyboard-response","145","2.1.0","318792","J=YES, F=NO","umcuhysdj5","1","60","80","40","","","","","","","","","","","","","","","",""
"null","audio/floor.wav","null","audio-keyboard-response","146","2.1.0","319551","J=YES, F=NO","umcuhysdj5","1","60","80","40","","","","","","","","","","","","","","","",""
"917","
          <p id=""word"" style=""font-size: 40px;"">mop</p>
          <p style=""font-size: 16px;"">J = YES &nbsp;&nbsp;&nbsp; F = NO</p>
        ","j","html-keyboard-response","147","2.1.0","320471","J=YES, F=NO","umcuhysdj5","1","60","80","40","","","","","","","","","mop","floor","filler","filler","j","true","",""
"null","<p style=""font-size: 50px;"">+</p>","null","html-keyboard-response","148","2.1.0","320778","J=YES, F=NO","umcuhysdj5","1","60","80","40","","","","","","","","","","","","","","","",""
"null","audio/beep-329314.mp3","null","audio-keyboard-response","149","2.1.0","322312","J=YES, F=NO","umcuhysdj5","1","60","80","40","","","","","","","","","","","","","","","",""
"null","audio/window1.wav","null","audio-keyboard-response","150","2.1.0","323031","J=YES, F=NO","umcuhysdj5","1","60","80","40","","","","","","","","","","","","","","","",""
"818","
          <p id=""word"" style=""font-size: 40px;"">toss</p>
          <p style=""font-size: 16px;"">J = YES &nbsp;&nbsp;&nbsp; F = NO</p>
        ","j","html-keyboard-response","151","2.1.0","323851","J=YES, F=NO","umcuhysdj5","1","60","80","40","","","","","","","","","toss","window1","filler","filler","j","true","",""
"null","<p style=""font-size: 50px;"">+</p>","null","html-keyboard-response","152","2.1.0","324168","J=YES, F=NO","umcuhysdj5","1","60","80","40","","","","","","","","","","","","","","","",""
"null","audio/beep-329314.mp3","null","audio-keyboard-response","153","2.1.0","325689","J=YES, F=NO","umcuhysdj5","1","60","80","40","","","","","","","","","","","","","","","",""
"null","audio/pattern.wav","null","audio-keyboard-response","154","2.1.0","326212","J=YES, F=NO","umcuhysdj5","1","60","80","40","","","","","","","","","","","","","","","",""
"1043","
          <p id=""word"" style=""font-size: 40px;"">tug</p>
          <p style=""font-size: 16px;"">J = YES &nbsp;&nbsp;&nbsp; F = NO</p>
        ","f","html-keyboard-response","155","2.1.0","327257","J=YES, F=NO","umcuhysdj5","1","60","80","40","","","","","","","","","tug","pattern","filler","filler","j","false","",""
"null","<p style=""font-size: 50px;"">+</p>","null","html-keyboard-response","156","2.1.0","327568","J=YES, F=NO","umcuhysdj5","1","60","80","40","","","","","","","","","","","","","","","",""
"null","audio/beep-329314.mp3","null","audio-keyboard-response","157","2.1.0","329112","J=YES, F=NO","umcuhysdj5","1","60","80","40","","","","","","","","","","","","","","","",""
"null","audio/butter1.wav","null","audio-keyboard-response","158","2.1.0","329591","J=YES, F=NO","umcuhysdj5","1","60","80","40","","","","","","","","","","","","","","","",""
"780","
          <p id=""word"" style=""font-size: 40px;"">chew</p>
          <p style=""font-size: 16px;"">J = YES &nbsp;&nbsp;&nbsp; F = NO</p>
        ","j","html-keyboard-response","159","2.1.0","330373","J=YES, F=NO","umcuhysdj5","1","60","80","40","","","","","","","","","chew","butter1","filler","filler","j","true","",""
"null","<p style=""font-size: 50px;"">+</p>","null","html-keyboard-response","160","2.1.0","330678","J=YES, F=NO","umcuhysdj5","1","60","80","40","","","","","","","","","","","","","","","",""
"null","audio/beep-329314.mp3","null","audio-keyboard-response","161","2.1.0","332213","J=YES, F=NO","umcuhysdj5","1","60","80","40","","","","","","","","","","","","","","","",""
"null","audio/empire.wav","null","audio-keyboard-response","162","2.1.0","332971","J=YES, F=NO","umcuhysdj5","1","60","80","40","","","","","","","","","","","","","","","",""
"1097","
          <p id=""word"" style=""font-size: 40px;"">slorby</p>
          <p style=""font-size: 16px;"">J = YES &nbsp;&nbsp;&nbsp; F = NO</p>
        ","f","html-keyboard-response","163","2.1.0","334070","J=YES, F=NO","umcuhysdj5","1","60","80","40","","","","","","","","","slorby","empire","pseudoword","pseudoword","f","true","",""
"8890","
    <div style=""max-width: 800px; margin: auto; text-align: left;"">
      <h2>Part 2: Main Trials</h2>
      <p>Great job on the practice trials!</p>
      <p>You will now begin the <strong>main set of trials</strong>.</p>
      <p>Remember your key assignments:</p>
      <ul>
        <li><strong>J</strong> = YES (real English word)</li>
        <li><strong>F</strong> = NO (not a real English word)</li>
      </ul>
      <p>Try to respond as <strong>quickly and accurately</strong> as possible.</p>
      <p style=""margin-top: 2em;"">Press any key to begin the main trials.</p>
    </div>
  "," ","html-keyboard-response","164","2.1.0","342961","J=YES, F=NO","umcuhysdj5","1","60","80","40","","","","","","","","","","","","","","","",""
"1589","<p>Starting main block 1 of 8. Press any key to continue.</p>"," ","html-keyboard-response","165","2.1.0","344552","J=YES, F=NO","umcuhysdj5","1","60","80","40","","","","","","","","","","","","","","","",""
"null","<p style=""font-size: 50px;"">+</p>","null","html-keyboard-response","166","2.1.0","344864","J=YES, F=NO","umcuhysdj5","1","60","80","40","","","","","","","","","","","","","","","",""
"null","audio/beep-329314.mp3","null","audio-keyboard-response","167","2.1.0","346372","J=YES, F=NO","umcuhysdj5","1","60","80","40","","","","","","","","","","","","","","","",""
"null","audio/purpose.wav","null","audio-keyboard-response","168","2.1.0","347040","J=YES, F=NO","umcuhysdj5","1","60","80","40","","","","","","","","","","","","","","","",""
"886","
          <p id=""word"" style=""font-size: 40px;"">whigm</p>
          <p style=""font-size: 16px;"">J = YES &nbsp;&nbsp;&nbsp; F = NO</p>
        ","f","html-keyboard-response","169","2.1.0","347928","J=YES, F=NO","umcuhysdj5","1","60","80","40","","","","","","","","","whigm","purpose","pseudoword","pseudoword","f","true","",""
"null","<p style=""font-size: 50px;"">+</p>","null","html-keyboard-response","170","2.1.0","348238","J=YES, F=NO","umcuhysdj5","1","60","80","40","","","","","","","","","","","","","","","",""
"null","audio/beep-329314.mp3","null","audio-keyboard-response","171","2.1.0","349772","J=YES, F=NO","umcuhysdj5","1","60","80","40","","","","","","","","","","","","","","","",""
"null","audio/tunnel.wav","null","audio-keyboard-response","172","2.1.0","350220","J=YES, F=NO","umcuhysdj5","1","60","80","40","","","","","","","","","","","","","","","",""
"704","
          <p id=""word"" style=""font-size: 40px;"">grasp</p>
          <p style=""font-size: 16px;"">J = YES &nbsp;&nbsp;&nbsp; F = NO</p>
        ","f","html-keyboard-response","173","2.1.0","350926","J=YES, F=NO","umcuhysdj5","1","60","80","40","","","","","","","","","grasp","tunnel","unrelated","experimental","j","false","",""
"null","<p style=""font-size: 50px;"">+</p>","null","html-keyboard-response","174","2.1.0","351228","J=YES, F=NO","umcuhysdj5","1","60","80","40","","","","","","","","","","","","","","","",""
"null","audio/beep-329314.mp3","null","audio-keyboard-response","175","2.1.0","352751","J=YES, F=NO","umcuhysdj5","1","60","80","40","","","","","","","","","","","","","","","",""
"null","audio/smirk1.wav","null","audio-keyboard-response","176","2.1.0","353501","J=YES, F=NO","umcuhysdj5","1","60","80","40","","","","","","","","","","","","","","","",""
"771","
          <p id=""word"" style=""font-size: 40px;"">wipe</p>
          <p style=""font-size: 16px;"">J = YES &nbsp;&nbsp;&nbsp; F = NO</p>
        ","j","html-keyboard-response","177","2.1.0","354273","J=YES, F=NO","umcuhysdj5","1","60","80","40","","","","","","","","","wipe","smirk1","metaphor","experimental","j","true","",""
"null","<p style=""font-size: 50px;"">+</p>","null","html-keyboard-response","178","2.1.0","354587","J=YES, F=NO","umcuhysdj5","1","60","80","40","","","","","","","","","","","","","","","",""
"null","audio/beep-329314.mp3","null","audio-keyboard-response","179","2.1.0","356111","J=YES, F=NO","umcuhysdj5","1","60","80","40","","","","","","","","","","","","","","","",""
"null","audio/milk.wav","null","audio-keyboard-response","180","2.1.0","356701","J=YES, F=NO","umcuhysdj5","1","60","80","40","","","","","","","","","","","","","","","",""
"898","
          <p id=""word"" style=""font-size: 40px;"">digest</p>
          <p style=""font-size: 16px;"">J = YES &nbsp;&nbsp;&nbsp; F = NO</p>
        ","j","html-keyboard-response","181","2.1.0","357601","J=YES, F=NO","umcuhysdj5","1","60","80","40","","","","","","","","","digest","milk","literal","experimental","j","true","",""
"null","<p style=""font-size: 50px;"">+</p>","null","html-keyboard-response","182","2.1.0","357908","J=YES, F=NO","umcuhysdj5","1","60","80","40","","","","","","","","","","","","","","","",""
"null","audio/beep-329314.mp3","null","audio-keyboard-response","183","2.1.0","359452","J=YES, F=NO","umcuhysdj5","1","60","80","40","","","","","","","","","","","","","","","",""
"null","audio/topic.wav","null","audio-keyboard-response","184","2.1.0","360041","J=YES, F=NO","umcuhysdj5","1","60","80","40","","","","","","","","","","","","","","","",""
"676","
          <p id=""word"" style=""font-size: 40px;"">approach</p>
          <p style=""font-size: 16px;"">J = YES &nbsp;&nbsp;&nbsp; F = NO</p>
        ","j","html-keyboard-response","185","2.1.0","360719","J=YES, F=NO","umcuhysdj5","1","60","80","40","","","","","","","","","approach","topic","metaphor","experimental","j","true","",""
"null","<p style=""font-size: 50px;"">+</p>","null","html-keyboard-response","186","2.1.0","361037","J=YES, F=NO","umcuhysdj5","1","60","80","40","","","","","","","","","","","","","","","",""
"null","audio/beep-329314.mp3","null","audio-keyboard-response","187","2.1.0","362569","J=YES, F=NO","umcuhysdj5","1","60","80","40","","","","","","","","","","","","","","","",""
"null","audio/foe1.wav","null","audio-keyboard-response","188","2.1.0","363081","J=YES, F=NO","umcuhysdj5","1","60","80","40","","","","","","","","","","","","","","","",""
"761","
          <p id=""word"" style=""font-size: 40px;"">creth</p>
          <p style=""font-size: 16px;"">J = YES &nbsp;&nbsp;&nbsp; F = NO</p>
        ","f","html-keyboard-response","189","2.1.0","363844","J=YES, F=NO","umcuhysdj5","1","60","80","40","","","","","","","","","creth","foe1","pseudoword","pseudoword","f","true","",""
"null","<p style=""font-size: 50px;"">+</p>","null","html-keyboard-response","190","2.1.0","364158","J=YES, F=NO","umcuhysdj5","1","60","80","40","","","","","","","","","","","","","","","",""
"null","audio/beep-329314.mp3","null","audio-keyboard-response","191","2.1.0","365692","J=YES, F=NO","umcuhysdj5","1","60","80","40","","","","","","","","","","","","","","","",""
"null","audio/cinema1.wav","null","audio-keyboard-response","192","2.1.0","366319","J=YES, F=NO","umcuhysdj5","1","60","80","40","","","","","","","","","","","","","","","",""
"645","
          <p id=""word"" style=""font-size: 40px;"">grow</p>
          <p style=""font-size: 16px;"">J = YES &nbsp;&nbsp;&nbsp; F = NO</p>
        ","j","html-keyboard-response","193","2.1.0","366965","J=YES, F=NO","umcuhysdj5","1","60","80","40","","","","","","","","","grow","cinema1","unrelated","experimental","j","true","",""
"null","<p style=""font-size: 50px;"">+</p>","null","html-keyboard-response","194","2.1.0","367268","J=YES, F=NO","umcuhysdj5","1","60","80","40","","","","","","","","","","","","","","","",""
"null","audio/beep-329314.mp3","null","audio-keyboard-response","195","2.1.0","368792","J=YES, F=NO","umcuhysdj5","1","60","80","40","","","","","","","","","","","","","","","",""
"null","audio/scar.wav","null","audio-keyboard-response","196","2.1.0","369401","J=YES, F=NO","umcuhysdj5","1","60","80","40","","","","","","","","","","","","","","","",""
"629","
          <p id=""word"" style=""font-size: 40px;"">hide</p>
          <p style=""font-size: 16px;"">J = YES &nbsp;&nbsp;&nbsp; F = NO</p>
        ","j","html-keyboard-response","197","2.1.0","370033","J=YES, F=NO","umcuhysdj5","1","60","80","40","","","","","","","","","hide","scar","literal","experimental","j","true","",""
"null","<p style=""font-size: 50px;"">+</p>","null","html-keyboard-response","198","2.1.0","370338","J=YES, F=NO","umcuhysdj5","1","60","80","40","","","","","","","","","","","","","","","",""
"null","audio/beep-329314.mp3","null","audio-keyboard-response","199","2.1.0","371871","J=YES, F=NO","umcuhysdj5","1","60","80","40","","","","","","","","","","","","","","","",""
"null","audio/arm.wav","null","audio-keyboard-response","200","2.1.0","372401","J=YES, F=NO","umcuhysdj5","1","60","80","40","","","","","","","","","","","","","","","",""
"588","
          <p id=""word"" style=""font-size: 40px;"">fold</p>
          <p style=""font-size: 16px;"">J = YES &nbsp;&nbsp;&nbsp; F = NO</p>
        ","j","html-keyboard-response","201","2.1.0","372991","J=YES, F=NO","umcuhysdj5","1","60","80","40","","","","","","","","","fold","arm","filler","filler","j","true","",""
"null","<p style=""font-size: 50px;"">+</p>","null","html-keyboard-response","202","2.1.0","373298","J=YES, F=NO","umcuhysdj5","1","60","80","40","","","","","","","","","","","","","","","",""
"null","audio/beep-329314.mp3","null","audio-keyboard-response","203","2.1.0","374831","J=YES, F=NO","umcuhysdj5","1","60","80","40","","","","","","","","","","","","","","","",""
"null","audio/plot1.wav","null","audio-keyboard-response","204","2.1.0","375461","J=YES, F=NO","umcuhysdj5","1","60","80","40","","","","","","","","","","","","","","","",""
"788","
          <p id=""word"" style=""font-size: 40px;"">weave</p>
          <p style=""font-size: 16px;"">J = YES &nbsp;&nbsp;&nbsp; F = NO</p>
        ","j","html-keyboard-response","205","2.1.0","376251","J=YES, F=NO","umcuhysdj5","1","60","80","40","","","","","","","","","weave","plot1","metaphor","experimental","j","true","",""
"null","<p style=""font-size: 50px;"">+</p>","null","html-keyboard-response","206","2.1.0","376568","J=YES, F=NO","umcuhysdj5","1","60","80","40","","","","","","","","","","","","","","","",""
"null","audio/beep-329314.mp3","null","audio-keyboard-response","207","2.1.0","378090","J=YES, F=NO","umcuhysdj5","1","60","80","40","","","","","","","","","","","","","","","",""
"null","audio/menu.wav","null","audio-keyboard-response","208","2.1.0","378641","J=YES, F=NO","umcuhysdj5","1","60","80","40","","","","","","","","","","","","","","","",""
"664","
          <p id=""word"" style=""font-size: 40px;"">navigate</p>
          <p style=""font-size: 16px;"">J = YES &nbsp;&nbsp;&nbsp; F = NO</p>
        ","j","html-keyboard-response","209","2.1.0","379308","J=YES, F=NO","umcuhysdj5","1","60","80","40","","","","","","","","","navigate","menu","metaphor","experimental","j","true","",""
"null","<p style=""font-size: 50px;"">+</p>","null","html-keyboard-response","210","2.1.0","379618","J=YES, F=NO","umcuhysdj5","1","60","80","40","","","","","","","","","","","","","","","",""
"null","audio/beep-329314.mp3","null","audio-keyboard-response","211","2.1.0","381151","J=YES, F=NO","umcuhysdj5","1","60","80","40","","","","","","","","","","","","","","","",""
"null","audio/ankle1.wav","null","audio-keyboard-response","212","2.1.0","381701","J=YES, F=NO","umcuhysdj5","1","60","80","40","","","","","","","","","","","","","","","",""
"567","
          <p id=""word"" style=""font-size: 40px;"">switm</p>
          <p style=""font-size: 16px;"">J = YES &nbsp;&nbsp;&nbsp; F = NO</p>
        ","j","html-keyboard-response","213","2.1.0","382270","J=YES, F=NO","umcuhysdj5","1","60","80","40","","","","","","","","","switm","ankle1","pseudoword","pseudoword","f","false","",""
"null","<p style=""font-size: 50px;"">+</p>","null","html-keyboard-response","214","2.1.0","382588","J=YES, F=NO","umcuhysdj5","1","60","80","40","","","","","","","","","","","","","","","",""
"null","audio/beep-329314.mp3","null","audio-keyboard-response","215","2.1.0","384131","J=YES, F=NO","umcuhysdj5","1","60","80","40","","","","","","","","","","","","","","","",""
"null","audio/planet1.wav","null","audio-keyboard-response","216","2.1.0","384741","J=YES, F=NO","umcuhysdj5","1","60","80","40","","","","","","","","","","","","","","","",""
"null","
          <p id=""word"" style=""font-size: 40px;"">cratched</p>
          <p style=""font-size: 16px;"">J = YES &nbsp;&nbsp;&nbsp; F = NO</p>
        ","null","html-keyboard-response","217","2.1.0","386257","J=YES, F=NO","umcuhysdj5","1","60","80","40","","","","","","","","","cratched","planet1","pseudoword","pseudoword","f","false","",""
"null","<p style=""font-size: 50px;"">+</p>","null","html-keyboard-response","218","2.1.0","386577","J=YES, F=NO","umcuhysdj5","1","60","80","40","","","","","","","","","","","","","","","",""
"null","audio/beep-329314.mp3","null","audio-keyboard-response","219","2.1.0","388111","J=YES, F=NO","umcuhysdj5","1","60","80","40","","","","","","","","","","","","","","","",""
"null","audio/tomato.wav","null","audio-keyboard-response","220","2.1.0","388800","J=YES, F=NO","umcuhysdj5","1","60","80","40","","","","","","","","","","","","","","","",""
"1198","
          <p id=""word"" style=""font-size: 40px;"">gladies</p>
          <p style=""font-size: 16px;"">J = YES &nbsp;&nbsp;&nbsp; F = NO</p>
        ","f","html-keyboard-response","221","2.1.0","390000","J=YES, F=NO","umcuhysdj5","1","60","80","40","","","","","","","","","gladies","tomato","pseudoword","pseudoword","f","true","",""
"null","<p style=""font-size: 50px;"">+</p>","null","html-keyboard-response","222","2.1.0","390318","J=YES, F=NO","umcuhysdj5","1","60","80","40","","","","","","","","","","","","","","","",""
"null","audio/beep-329314.mp3","null","audio-keyboard-response","223","2.1.0","391852","J=YES, F=NO","umcuhysdj5","1","60","80","40","","","","","","","","","","","","","","","",""
"null","audio/voice.wav","null","audio-keyboard-response","224","2.1.0","392461","J=YES, F=NO","umcuhysdj5","1","60","80","40","","","","","","","","","","","","","","","",""
"916","
          <p id=""word"" style=""font-size: 40px;"">grintle</p>
          <p style=""font-size: 16px;"">J = YES &nbsp;&nbsp;&nbsp; F = NO</p>
        ","f","html-keyboard-response","225","2.1.0","393379","J=YES, F=NO","umcuhysdj5","1","60","80","40","","","","","","","","","grintle","voice","pseudoword","pseudoword","f","true","",""
"null","<p style=""font-size: 50px;"">+</p>","null","html-keyboard-response","226","2.1.0","393696","J=YES, F=NO","umcuhysdj5","1","60","80","40","","","","","","","","","","","","","","","",""
"null","audio/beep-329314.mp3","null","audio-keyboard-response","227","2.1.0","395231","J=YES, F=NO","umcuhysdj5","1","60","80","40","","","","","","","","","","","","","","","",""
"null","audio/fox.wav","null","audio-keyboard-response","228","2.1.0","396061","J=YES, F=NO","umcuhysdj5","1","60","80","40","","","","","","","","","","","","","","","",""
"777","
          <p id=""word"" style=""font-size: 40px;"">conquer</p>
          <p style=""font-size: 16px;"">J = YES &nbsp;&nbsp;&nbsp; F = NO</p>
        ","f","html-keyboard-response","229","2.1.0","396839","J=YES, F=NO","umcuhysdj5","1","60","80","40","","","","","","","","","conquer","fox","unrelated","experimental","j","false","",""
"11714","<p>Excellent! You have finished block 1 of 8.</p>
                     <p>Feel free to take a 30 second break.</p>
                     <p>Press any key when you're ready to continue.</p>"," ","html-keyboard-response","230","2.1.0","408555","J=YES, F=NO","umcuhysdj5","1","60","80","40","","","","","","","","","","","","","","","",""
"2641","<p>Starting main block 2 of 8. Press any key to continue.</p>"," ","html-keyboard-response","231","2.1.0","411197","J=YES, F=NO","umcuhysdj5","1","60","80","40","","","","","","","","","","","","","","","",""
"null","<p style=""font-size: 50px;"">+</p>","null","html-keyboard-response","232","2.1.0","411501","J=YES, F=NO","umcuhysdj5","1","60","80","40","","","","","","","","","","","","","","","",""
"null","audio/beep-329314.mp3","null","audio-keyboard-response","233","2.1.0","413182","J=YES, F=NO","umcuhysdj5","1","60","80","40","","","","","","","","","","","","","","","",""
"null","audio/corpse1.wav","null","audio-keyboard-response","234","2.1.0","413813","J=YES, F=NO","umcuhysdj5","1","60","80","40","","","","","","","","","","","","","","","",""
"803","
          <p id=""word"" style=""font-size: 40px;"">glonet</p>
          <p style=""font-size: 16px;"">J = YES &nbsp;&nbsp;&nbsp; F = NO</p>
        ","f","html-keyboard-response","235","2.1.0","414618","J=YES, F=NO","umcuhysdj5","1","60","80","40","","","","","","","","","glonet","corpse1","pseudoword","pseudoword","f","true","",""
"null","<p style=""font-size: 50px;"">+</p>","null","html-keyboard-response","236","2.1.0","414931","J=YES, F=NO","umcuhysdj5","1","60","80","40","","","","","","","","","","","","","","","",""
"null","audio/beep-329314.mp3","null","audio-keyboard-response","237","2.1.0","416464","J=YES, F=NO","umcuhysdj5","1","60","80","40","","","","","","","","","","","","","","","",""
"null","audio/belief.wav","null","audio-keyboard-response","238","2.1.0","417174","J=YES, F=NO","umcuhysdj5","1","60","80","40","","","","","","","","","","","","","","","",""
"null","
          <p id=""word"" style=""font-size: 40px;"">share</p>
          <p style=""font-size: 16px;"">J = YES &nbsp;&nbsp;&nbsp; F = NO</p>
        ","null","html-keyboard-response","239","2.1.0","418690","J=YES, F=NO","umcuhysdj5","1","60","80","40","","","","","","","","","share","belief","metaphor","experimental","j","false","",""
"null","<p style=""font-size: 50px;"">+</p>","null","html-keyboard-response","240","2.1.0","419010","J=YES, F=NO","umcuhysdj5","1","60","80","40","","","","","","","","","","","","","","","",""
"null","audio/beep-329314.mp3","null","audio-keyboard-response","241","2.1.0","420543","J=YES, F=NO","umcuhysdj5","1","60","80","40","","","","","","","","","","","","","","","",""
"null","audio/church1.wav","null","audio-keyboard-response","242","2.1.0","421254","J=YES, F=NO","umcuhysdj5","1","60","80","40","","","","","","","","","","","","","","","",""
"642","
          <p id=""word"" style=""font-size: 40px;"">cover</p>
          <p style=""font-size: 16px;"">J = YES &nbsp;&nbsp;&nbsp; F = NO</p>
        ","j","html-keyboard-response","243","2.1.0","421898","J=YES, F=NO","umcuhysdj5","1","60","80","40","","","","","","","","","cover","church1","unrelated","experimental","j","true","",""
"null","<p style=""font-size: 50px;"">+</p>","null","html-keyboard-response","244","2.1.0","422210","J=YES, F=NO","umcuhysdj5","1","60","80","40","","","","","","","","","","","","","","","",""
"null","audio/beep-329314.mp3","null","audio-keyboard-response","245","2.1.0","423743","J=YES, F=NO","umcuhysdj5","1","60","80","40","","","","","","","","","","","","","","","",""
"null","audio/foot1.wav","null","audio-keyboard-response","246","2.1.0","424312","J=YES, F=NO","umcuhysdj5","1","60","80","40","","","","","","","","","","","","","","","",""
"834","
          <p id=""word"" style=""font-size: 40px;"">thrutt</p>
          <p style=""font-size: 16px;"">J = YES &nbsp;&nbsp;&nbsp; F = NO</p>
        ","f","html-keyboard-response","247","2.1.0","425147","J=YES, F=NO","umcuhysdj5","1","60","80","40","","","","","","","","","thrutt","foot1","pseudoword","pseudoword","f","true","",""
"null","<p style=""font-size: 50px;"">+</p>","null","html-keyboard-response","248","2.1.0","425460","J=YES, F=NO","umcuhysdj5","1","60","80","40","","","","","","","","","","","","","","","",""
"null","audio/beep-329314.mp3","null","audio-keyboard-response","249","2.1.0","426983","J=YES, F=NO","umcuhysdj5","1","60","80","40","","","","","","","","","","","","","","","",""
"null","audio/grass.wav","null","audio-keyboard-response","250","2.1.0","427653","J=YES, F=NO","umcuhysdj5","1","60","80","40","","","","","","","","","","","","","","","",""
"847","
          <p id=""word"" style=""font-size: 40px;"">cut</p>
          <p style=""font-size: 16px;"">J = YES &nbsp;&nbsp;&nbsp; F = NO</p>
        ","j","html-keyboard-response","251","2.1.0","428502","J=YES, F=NO","umcuhysdj5","1","60","80","40","","","","","","","","","cut","grass","literal","experimental","j","true","",""
"null","<p style=""font-size: 50px;"">+</p>","null","html-keyboard-response","252","2.1.0","428820","J=YES, F=NO","umcuhysdj5","1","60","80","40","","","","","","","","","","","","","","","",""
"null","audio/beep-329314.mp3","null","audio-keyboard-response","253","2.1.0","430363","J=YES, F=NO","umcuhysdj5","1","60","80","40","","","","","","","","","","","","","","","",""
"null","audio/mind.wav","null","audio-keyboard-response","254","2.1.0","430952","J=YES, F=NO","umcuhysdj5","1","60","80","40","","","","","","","","","","","","","","","",""
"849","
          <p id=""word"" style=""font-size: 40px;"">crainate</p>
          <p style=""font-size: 16px;"">J = YES &nbsp;&nbsp;&nbsp; F = NO</p>
        ","f","html-keyboard-response","255","2.1.0","431804","J=YES, F=NO","umcuhysdj5","1","60","80","40","","","","","","","","","crainate","mind","pseudoword","pseudoword","f","true","",""
"null","<p style=""font-size: 50px;"">+</p>","null","html-keyboard-response","256","2.1.0","432120","J=YES, F=NO","umcuhysdj5","1","60","80","40","","","","","","","","","","","","","","","",""
"null","audio/beep-329314.mp3","null","audio-keyboard-response","257","2.1.0","433644","J=YES, F=NO","umcuhysdj5","1","60","80","40","","","","","","","","","","","","","","","",""
"null","audio/strength.wav","null","audio-keyboard-response","258","2.1.0","434392","J=YES, F=NO","umcuhysdj5","1","60","80","40","","","","","","","","","","","","","","","",""
"703","
          <p id=""word"" style=""font-size: 40px;"">plabet</p>
          <p style=""font-size: 16px;"">J = YES &nbsp;&nbsp;&nbsp; F = NO</p>
        ","f","html-keyboard-response","259","2.1.0","435098","J=YES, F=NO","umcuhysdj5","1","60","80","40","","","","","","","","","plabet","strength","pseudoword","pseudoword","f","true","",""
"null","<p style=""font-size: 50px;"">+</p>","null","html-keyboard-response","260","2.1.0","435400","J=YES, F=NO","umcuhysdj5","1","60","80","40","","","","","","","","","","","","","","","",""
"null","audio/beep-329314.mp3","null","audio-keyboard-response","261","2.1.0","436923","J=YES, F=NO","umcuhysdj5","1","60","80","40","","","","","","","","","","","","","","","",""
"null","audio/mood1.wav","null","audio-keyboard-response","262","2.1.0","437413","J=YES, F=NO","umcuhysdj5","1","60","80","40","","","","","","","","","","","","","","","",""
"732","
          <p id=""word"" style=""font-size: 40px;"">give</p>
          <p style=""font-size: 16px;"">J = YES &nbsp;&nbsp;&nbsp; F = NO</p>
        ","j","html-keyboard-response","263","2.1.0","438147","J=YES, F=NO","umcuhysdj5","1","60","80","40","","","","","","","","","give","mood1","unrelated","experimental","j","true","",""
"null","<p style=""font-size: 50px;"">+</p>","null","html-keyboard-response","264","2.1.0","438450","J=YES, F=NO","umcuhysdj5","1","60","80","40","","","","","","","","","","","","","","","",""
"null","audio/beep-329314.mp3","null","audio-keyboard-response","265","2.1.0","439981","J=YES, F=NO","umcuhysdj5","1","60","80","40","","","","","","","","","","","","","","","",""
"null","audio/heart1.wav","null","audio-keyboard-response","266","2.1.0","440612","J=YES, F=NO","umcuhysdj5","1","60","80","40","","","","","","","","","","","","","","","",""
"814","
          <p id=""word"" style=""font-size: 40px;"">dralm</p>
          <p style=""font-size: 16px;"">J = YES &nbsp;&nbsp;&nbsp; F = NO</p>
        ","f","html-keyboard-response","267","2.1.0","441428","J=YES, F=NO","umcuhysdj5","1","60","80","40","","","","","","","","","dralm","heart1","pseudoword","pseudoword","f","true","",""
"null","<p style=""font-size: 50px;"">+</p>","null","html-keyboard-response","268","2.1.0","441730","J=YES, F=NO","umcuhysdj5","1","60","80","40","","","","","","","","","","","","","","","",""
"null","audio/beep-329314.mp3","null","audio-keyboard-response","269","2.1.0","443263","J=YES, F=NO","umcuhysdj5","1","60","80","40","","","","","","","","","","","","","","","",""
"null","audio/cloud1.wav","null","audio-keyboard-response","270","2.1.0","443853","J=YES, F=NO","umcuhysdj5","1","60","80","40","","","","","","","","","","","","","","","",""
"916","
          <p id=""word"" style=""font-size: 40px;"">brotant</p>
          <p style=""font-size: 16px;"">J = YES &nbsp;&nbsp;&nbsp; F = NO</p>
        ","f","html-keyboard-response","271","2.1.0","444771","J=YES, F=NO","umcuhysdj5","1","60","80","40","","","","","","","","","brotant","cloud1","pseudoword","pseudoword","f","true","",""
"null","<p style=""font-size: 50px;"">+</p>","null","html-keyboard-response","272","2.1.0","445080","J=YES, F=NO","umcuhysdj5","1","60","80","40","","","","","","","","","","","","","","","",""
"null","audio/beep-329314.mp3","null","audio-keyboard-response","273","2.1.0","446603","J=YES, F=NO","umcuhysdj5","1","60","80","40","","","","","","","","","","","","","","","",""
"null","audio/bishop1.wav","null","audio-keyboard-response","274","2.1.0","447272","J=YES, F=NO","umcuhysdj5","1","60","80","40","","","","","","","","","","","","","","","",""
"880","
          <p id=""word"" style=""font-size: 40px;"">devour</p>
          <p style=""font-size: 16px;"">J = YES &nbsp;&nbsp;&nbsp; F = NO</p>
        ","j","html-keyboard-response","275","2.1.0","448155","J=YES, F=NO","umcuhysdj5","1","60","80","40","","","","","","","","","devour","bishop1","unrelated","experimental","j","true","",""
"null","<p style=""font-size: 50px;"">+</p>","null","html-keyboard-response","276","2.1.0","448470","J=YES, F=NO","umcuhysdj5","1","60","80","40","","","","","","","","","","","","","","","",""
"null","audio/beep-329314.mp3","null","audio-keyboard-response","277","2.1.0","450004","J=YES, F=NO","umcuhysdj5","1","60","80","40","","","","","","","","","","","","","","","",""
"null","audio/mile1.wav","null","audio-keyboard-response","278","2.1.0","450513","J=YES, F=NO","umcuhysdj5","1","60","80","40","","","","","","","","","","","","","","","",""
"653","
          <p id=""word"" style=""font-size: 40px;"">writch</p>
          <p style=""font-size: 16px;"">J = YES &nbsp;&nbsp;&nbsp; F = NO</p>
        ","f","html-keyboard-response","279","2.1.0","451169","J=YES, F=NO","umcuhysdj5","1","60","80","40","","","","","","","","","writch","mile1","pseudoword","pseudoword","f","true","",""
"null","<p style=""font-size: 50px;"">+</p>","null","html-keyboard-response","280","2.1.0","451475","J=YES, F=NO","umcuhysdj5","1","60","80","40","","","","","","","","","","","","","","","",""
"null","audio/beep-329314.mp3","null","audio-keyboard-response","281","2.1.0","453004","J=YES, F=NO","umcuhysdj5","1","60","80","40","","","","","","","","","","","","","","","",""
"null","audio/sugar1.wav","null","audio-keyboard-response","282","2.1.0","453512","J=YES, F=NO","umcuhysdj5","1","60","80","40","","","","","","","","","","","","","","","",""
"739","
          <p id=""word"" style=""font-size: 40px;"">glung</p>
          <p style=""font-size: 16px;"">J = YES &nbsp;&nbsp;&nbsp; F = NO</p>
        ","f","html-keyboard-response","283","2.1.0","454253","J=YES, F=NO","umcuhysdj5","1","60","80","40","","","","","","","","","glung","sugar1","pseudoword","pseudoword","f","true","",""
"null","<p style=""font-size: 50px;"">+</p>","null","html-keyboard-response","284","2.1.0","454560","J=YES, F=NO","umcuhysdj5","1","60","80","40","","","","","","","","","","","","","","","",""
"null","audio/beep-329314.mp3","null","audio-keyboard-response","285","2.1.0","456084","J=YES, F=NO","umcuhysdj5","1","60","80","40","","","","","","","","","","","","","","","",""
"null","audio/alarm1.wav","null","audio-keyboard-response","286","2.1.0","456652","J=YES, F=NO","umcuhysdj5","1","60","80","40","","","","","","","","","","","","","","","",""
"626","
          <p id=""word"" style=""font-size: 40px;"">swetp</p>
          <p style=""font-size: 16px;"">J = YES &nbsp;&nbsp;&nbsp; F = NO</p>
        ","f","html-keyboard-response","287","2.1.0","457279","J=YES, F=NO","umcuhysdj5","1","60","80","40","","","","","","","","","swetp","alarm1","pseudoword","pseudoword","f","true","",""
"null","<p style=""font-size: 50px;"">+</p>","null","html-keyboard-response","288","2.1.0","457600","J=YES, F=NO","umcuhysdj5","1","60","80","40","","","","","","","","","","","","","","","",""
"null","audio/beep-329314.mp3","null","audio-keyboard-response","289","2.1.0","459124","J=YES, F=NO","umcuhysdj5","1","60","80","40","","","","","","","","","","","","","","","",""
"null","audio/vehicle1.wav","null","audio-keyboard-response","290","2.1.0","459792","J=YES, F=NO","umcuhysdj5","1","60","80","40","","","","","","","","","","","","","","","",""
"601","
          <p id=""word"" style=""font-size: 40px;"">dropt</p>
          <p style=""font-size: 16px;"">J = YES &nbsp;&nbsp;&nbsp; F = NO</p>
        ","f","html-keyboard-response","291","2.1.0","460394","J=YES, F=NO","umcuhysdj5","1","60","80","40","","","","","","","","","dropt","vehicle1","pseudoword","pseudoword","f","true","",""
"null","<p style=""font-size: 50px;"">+</p>","null","html-keyboard-response","292","2.1.0","460700","J=YES, F=NO","umcuhysdj5","1","60","80","40","","","","","","","","","","","","","","","",""
"null","audio/beep-329314.mp3","null","audio-keyboard-response","293","2.1.0","462223","J=YES, F=NO","umcuhysdj5","1","60","80","40","","","","","","","","","","","","","","","",""
"null","audio/brain.wav","null","audio-keyboard-response","294","2.1.0","462754","J=YES, F=NO","umcuhysdj5","1","60","80","40","","","","","","","","","","","","","","","",""
"580","
          <p id=""word"" style=""font-size: 40px;"">flood</p>
          <p style=""font-size: 16px;"">J = YES &nbsp;&nbsp;&nbsp; F = NO</p>
        ","f","html-keyboard-response","295","2.1.0","463336","J=YES, F=NO","umcuhysdj5","1","60","80","40","","","","","","","","","flood","brain","metaphor","experimental","j","false","",""
"5807","<p>Excellent! You have finished block 2 of 8.</p>
                     <p>Feel free to take a 30 second break.</p>
                     <p>Press any key when you're ready to continue.</p>"," ","html-keyboard-response","296","2.1.0","469144","J=YES, F=NO","umcuhysdj5","1","60","80","40","","","","","","","","","","","","","","","",""
"3200","<p>Starting main block 3 of 8. Press any key to continue.</p>"," ","html-keyboard-response","297","2.1.0","472346","J=YES, F=NO","umcuhysdj5","1","60","80","40","","","","","","","","","","","","","","","",""
"null","<p style=""font-size: 50px;"">+</p>","null","html-keyboard-response","298","2.1.0","472660","J=YES, F=NO","umcuhysdj5","1","60","80","40","","","","","","","","","","","","","","","",""
"null","audio/beep-329314.mp3","null","audio-keyboard-response","299","2.1.0","474173","J=YES, F=NO","umcuhysdj5","1","60","80","40","","","","","","","","","","","","","","","",""
"null","audio/neck.wav","null","audio-keyboard-response","300","2.1.0","474782","J=YES, F=NO","umcuhysdj5","1","60","80","40","","","","","","","","","","","","","","","",""
"845","
          <p id=""word"" style=""font-size: 40px;"">werling</p>
          <p style=""font-size: 16px;"">J = YES &nbsp;&nbsp;&nbsp; F = NO</p>
        ","f","html-keyboard-response","301","2.1.0","475629","J=YES, F=NO","umcuhysdj5","1","60","80","40","","","","","","","","","werling","neck","pseudoword","pseudoword","f","true","",""
"null","<p style=""font-size: 50px;"">+</p>","null","html-keyboard-response","302","2.1.0","475940","J=YES, F=NO","umcuhysdj5","1","60","80","40","","","","","","","","","","","","","","","",""
"null","audio/beep-329314.mp3","null","audio-keyboard-response","303","2.1.0","477473","J=YES, F=NO","umcuhysdj5","1","60","80","40","","","","","","","","","","","","","","","",""
"null","audio/topic.wav","null","audio-keyboard-response","304","2.1.0","478023","J=YES, F=NO","umcuhysdj5","1","60","80","40","","","","","","","","","","","","","","","",""
"1460","
          <p id=""word"" style=""font-size: 40px;"">infortuitist</p>
          <p style=""font-size: 16px;"">J = YES &nbsp;&nbsp;&nbsp; F = NO</p>
        ","f","html-keyboard-response","305","2.1.0","479485","J=YES, F=NO","umcuhysdj5","1","60","80","40","","","","","","","","","infortuitist","topic","pseudoword","pseudoword","f","true","",""
"null","<p style=""font-size: 50px;"">+</p>","null","html-keyboard-response","306","2.1.0","479800","J=YES, F=NO","umcuhysdj5","1","60","80","40","","","","","","","","","","","","","","","",""
"null","audio/beep-329314.mp3","null","audio-keyboard-response","307","2.1.0","481333","J=YES, F=NO","umcuhysdj5","1","60","80","40","","","","","","","","","","","","","","","",""
"null","audio/novel.wav","null","audio-keyboard-response","308","2.1.0","481844","J=YES, F=NO","umcuhysdj5","1","60","80","40","","","","","","","","","","","","","","","",""
"694","
          <p id=""word"" style=""font-size: 40px;"">type</p>
          <p style=""font-size: 16px;"">J = YES &nbsp;&nbsp;&nbsp; F = NO</p>
        ","j","html-keyboard-response","309","2.1.0","482540","J=YES, F=NO","umcuhysdj5","1","60","80","40","","","","","","","","","type","novel","filler","filler","j","true","",""
"null","<p style=""font-size: 50px;"">+</p>","null","html-keyboard-response","310","2.1.0","482860","J=YES, F=NO","umcuhysdj5","1","60","80","40","","","","","","","","","","","","","","","",""
"null","audio/beep-329314.mp3","null","audio-keyboard-response","311","2.1.0","484392","J=YES, F=NO","umcuhysdj5","1","60","80","40","","","","","","","","","","","","","","","",""
"null","audio/cinema1.wav","null","audio-keyboard-response","312","2.1.0","484983","J=YES, F=NO","umcuhysdj5","1","60","80","40","","","","","","","","","","","","","","","",""
"790","
          <p id=""word"" style=""font-size: 40px;"">murple</p>
          <p style=""font-size: 16px;"">J = YES &nbsp;&nbsp;&nbsp; F = NO</p>
        ","f","html-keyboard-response","313","2.1.0","485775","J=YES, F=NO","umcuhysdj5","1","60","80","40","","","","","","","","","murple","cinema1","pseudoword","pseudoword","f","true","",""
"null","<p style=""font-size: 50px;"">+</p>","null","html-keyboard-response","314","2.1.0","486090","J=YES, F=NO","umcuhysdj5","1","60","80","40","","","","","","","","","","","","","","","",""
"null","audio/beep-329314.mp3","null","audio-keyboard-response","315","2.1.0","487613","J=YES, F=NO","umcuhysdj5","1","60","80","40","","","","","","","","","","","","","","","",""
"null","audio/burden.wav","null","audio-keyboard-response","316","2.1.0","488203","J=YES, F=NO","umcuhysdj5","1","60","80","40","","","","","","","","","","","","","","","",""
"574","
          <p id=""word"" style=""font-size: 40px;"">whotth</p>
          <p style=""font-size: 16px;"">J = YES &nbsp;&nbsp;&nbsp; F = NO</p>
        ","f","html-keyboard-response","317","2.1.0","488780","J=YES, F=NO","umcuhysdj5","1","60","80","40","","","","","","","","","whotth","burden","pseudoword","pseudoword","f","true","",""
"null","<p style=""font-size: 50px;"">+</p>","null","html-keyboard-response","318","2.1.0","489090","J=YES, F=NO","umcuhysdj5","1","60","80","40","","","","","","","","","","","","","","","",""
"null","audio/beep-329314.mp3","null","audio-keyboard-response","319","2.1.0","490614","J=YES, F=NO","umcuhysdj5","1","60","80","40","","","","","","","","","","","","","","","",""
"null","audio/bridge.wav","null","audio-keyboard-response","320","2.1.0","491243","J=YES, F=NO","umcuhysdj5","1","60","80","40","","","","","","","","","","","","","","","",""
"849","
          <p id=""word"" style=""font-size: 40px;"">crack</p>
          <p style=""font-size: 16px;"">J = YES &nbsp;&nbsp;&nbsp; F = NO</p>
        ","j","html-keyboard-response","321","2.1.0","492094","J=YES, F=NO","umcuhysdj5","1","60","80","40","","","","","","","","","crack","bridge","filler","filler","j","true","",""
"null","<p style=""font-size: 50px;"">+</p>","null","html-keyboard-response","322","2.1.0","492400","J=YES, F=NO","umcuhysdj5","1","60","80","40","","","","","","","","","","","","","","","",""
"null","audio/beep-329314.mp3","null","audio-keyboard-response","323","2.1.0","493933","J=YES, F=NO","umcuhysdj5","1","60","80","40","","","","","","","","","","","","","","","",""
"null","audio/trust.wav","null","audio-keyboard-response","324","2.1.0","494583","J=YES, F=NO","umcuhysdj5","1","60","80","40","","","","","","","","","","","","","","","",""
"602","
          <p id=""word"" style=""font-size: 40px;"">swint</p>
          <p style=""font-size: 16px;"">J = YES &nbsp;&nbsp;&nbsp; F = NO</p>
        ","f","html-keyboard-response","325","2.1.0","495187","J=YES, F=NO","umcuhysdj5","1","60","80","40","","","","","","","","","swint","trust","pseudoword","pseudoword","f","true","",""
"null","<p style=""font-size: 50px;"">+</p>","null","html-keyboard-response","326","2.1.0","495490","J=YES, F=NO","umcuhysdj5","1","60","80","40","","","","","","","","","","","","","","","",""
"null","audio/beep-329314.mp3","null","audio-keyboard-response","327","2.1.0","497013","J=YES, F=NO","umcuhysdj5","1","60","80","40","","","","","","","","","","","","","","","",""
"null","audio/battle1.wav","null","audio-keyboard-response","328","2.1.0","497503","J=YES, F=NO","umcuhysdj5","1","60","80","40","","","","","","","","","","","","","","","",""
"835","
          <p id=""word"" style=""font-size: 40px;"">fight</p>
          <p style=""font-size: 16px;"">J = YES &nbsp;&nbsp;&nbsp; F = NO</p>
        ","j","html-keyboard-response","329","2.1.0","498339","J=YES, F=NO","umcuhysdj5","1","60","80","40","","","","","","","","","fight","battle1","literal","experimental","j","true","",""
"null","<p style=""font-size: 50px;"">+</p>","null","html-keyboard-response","330","2.1.0","498650","J=YES, F=NO","umcuhysdj5","1","60","80","40","","","","","","","","","","","","","","","",""
"null","audio/beep-329314.mp3","null","audio-keyboard-response","331","2.1.0","500173","J=YES, F=NO","umcuhysdj5","1","60","80","40","","","","","","","","","","","","","","","",""
"null","audio/camp.wav","null","audio-keyboard-response","332","2.1.0","500743","J=YES, F=NO","umcuhysdj5","1","60","80","40","","","","","","","","","","","","","","","",""
"725","
          <p id=""word"" style=""font-size: 40px;"">touch</p>
          <p style=""font-size: 16px;"">J = YES &nbsp;&nbsp;&nbsp; F = NO</p>
        ","j","html-keyboard-response","333","2.1.0","501469","J=YES, F=NO","umcuhysdj5","1","60","80","40","","","","","","","","","touch","camp","unrelated","experimental","j","true","",""
"null","<p style=""font-size: 50px;"">+</p>","null","html-keyboard-response","334","2.1.0","501790","J=YES, F=NO","umcuhysdj5","1","60","80","40","","","","","","","","","","","","","","","",""
"null","audio/beep-329314.mp3","null","audio-keyboard-response","335","2.1.0","503333","J=YES, F=NO","umcuhysdj5","1","60","80","40","","","","","","","","","","","","","","","",""
"null","audio/brain.wav","null","audio-keyboard-response","336","2.1.0","503803","J=YES, F=NO","umcuhysdj5","1","60","80","40","","","","","","","","","","","","","","","",""
"647","
          <p id=""word"" style=""font-size: 40px;"">throw</p>
          <p style=""font-size: 16px;"">J = YES &nbsp;&nbsp;&nbsp; F = NO</p>
        ","j","html-keyboard-response","337","2.1.0","504451","J=YES, F=NO","umcuhysdj5","1","60","80","40","","","","","","","","","throw","brain","filler","filler","j","true","",""
"null","<p style=""font-size: 50px;"">+</p>","null","html-keyboard-response","338","2.1.0","504770","J=YES, F=NO","umcuhysdj5","1","60","80","40","","","","","","","","","","","","","","","",""
"null","audio/beep-329314.mp3","null","audio-keyboard-response","339","2.1.0","506294","J=YES, F=NO","umcuhysdj5","1","60","80","40","","","","","","","","","","","","","","","",""
"null","audio/sand.wav","null","audio-keyboard-response","340","2.1.0","506923","J=YES, F=NO","umcuhysdj5","1","60","80","40","","","","","","","","","","","","","","","",""
"627","
          <p id=""word"" style=""font-size: 40px;"">possess</p>
          <p style=""font-size: 16px;"">J = YES &nbsp;&nbsp;&nbsp; F = NO</p>
        ","j","html-keyboard-response","341","2.1.0","507552","J=YES, F=NO","umcuhysdj5","1","60","80","40","","","","","","","","","possess","sand","unrelated","experimental","j","true","",""
"null","<p style=""font-size: 50px;"">+</p>","null","html-keyboard-response","342","2.1.0","507870","J=YES, F=NO","umcuhysdj5","1","60","80","40","","","","","","","","","","","","","","","",""
"null","audio/beep-329314.mp3","null","audio-keyboard-response","343","2.1.0","509393","J=YES, F=NO","umcuhysdj5","1","60","80","40","","","","","","","","","","","","","","","",""
"null","audio/grass.wav","null","audio-keyboard-response","344","2.1.0","510023","J=YES, F=NO","umcuhysdj5","1","60","80","40","","","","","","","","","","","","","","","",""
"839","
          <p id=""word"" style=""font-size: 40px;"">milames</p>
          <p style=""font-size: 16px;"">J = YES &nbsp;&nbsp;&nbsp; F = NO</p>
        ","f","html-keyboard-response","345","2.1.0","510864","J=YES, F=NO","umcuhysdj5","1","60","80","40","","","","","","","","","milames","grass","pseudoword","pseudoword","f","true","",""
"null","<p style=""font-size: 50px;"">+</p>","null","html-keyboard-response","346","2.1.0","511170","J=YES, F=NO","umcuhysdj5","1","60","80","40","","","","","","","","","","","","","","","",""
"null","audio/beep-329314.mp3","null","audio-keyboard-response","347","2.1.0","512693","J=YES, F=NO","umcuhysdj5","1","60","80","40","","","","","","","","","","","","","","","",""
"null","audio/mouth1.wav","null","audio-keyboard-response","348","2.1.0","513263","J=YES, F=NO","umcuhysdj5","1","60","80","40","","","","","","","","","","","","","","","",""
"778","
          <p id=""word"" style=""font-size: 40px;"">spolial</p>
          <p style=""font-size: 16px;"">J = YES &nbsp;&nbsp;&nbsp; F = NO</p>
        ","f","html-keyboard-response","349","2.1.0","514043","J=YES, F=NO","umcuhysdj5","1","60","80","40","","","","","","","","","spolial","mouth1","pseudoword","pseudoword","f","true","",""
"null","<p style=""font-size: 50px;"">+</p>","null","html-keyboard-response","350","2.1.0","514349","J=YES, F=NO","umcuhysdj5","1","60","80","40","","","","","","","","","","","","","","","",""
"null","audio/beep-329314.mp3","null","audio-keyboard-response","351","2.1.0","515871","J=YES, F=NO","umcuhysdj5","1","60","80","40","","","","","","","","","","","","","","","",""
"null","audio/test1.wav","null","audio-keyboard-response","352","2.1.0","516442","J=YES, F=NO","umcuhysdj5","1","60","80","40","","","","","","","","","","","","","","","",""
"676","
          <p id=""word"" style=""font-size: 40px;"">twopch</p>
          <p style=""font-size: 16px;"">J = YES &nbsp;&nbsp;&nbsp; F = NO</p>
        ","f","html-keyboard-response","353","2.1.0","517120","J=YES, F=NO","umcuhysdj5","1","60","80","40","","","","","","","","","twopch","test1","pseudoword","pseudoword","f","true","",""
"null","<p style=""font-size: 50px;"">+</p>","null","html-keyboard-response","354","2.1.0","517430","J=YES, F=NO","umcuhysdj5","1","60","80","40","","","","","","","","","","","","","","","",""
"null","audio/beep-329314.mp3","null","audio-keyboard-response","355","2.1.0","518974","J=YES, F=NO","umcuhysdj5","1","60","80","40","","","","","","","","","","","","","","","",""
"null","audio/pride1.wav","null","audio-keyboard-response","356","2.1.0","519703","J=YES, F=NO","umcuhysdj5","1","60","80","40","","","","","","","","","","","","","","","",""
"828","
          <p id=""word"" style=""font-size: 40px;"">hurt</p>
          <p style=""font-size: 16px;"">J = YES &nbsp;&nbsp;&nbsp; F = NO</p>
        ","j","html-keyboard-response","357","2.1.0","520533","J=YES, F=NO","umcuhysdj5","1","60","80","40","","","","","","","","","hurt","pride1","metaphor","experimental","j","true","",""
"null","<p style=""font-size: 50px;"">+</p>","null","html-keyboard-response","358","2.1.0","520850","J=YES, F=NO","umcuhysdj5","1","60","80","40","","","","","","","","","","","","","","","",""
"null","audio/beep-329314.mp3","null","audio-keyboard-response","359","2.1.0","522374","J=YES, F=NO","umcuhysdj5","1","60","80","40","","","","","","","","","","","","","","","",""
"null","audio/train.wav","null","audio-keyboard-response","360","2.1.0","522904","J=YES, F=NO","umcuhysdj5","1","60","80","40","","","","","","","","","","","","","","","",""
"null","
          <p id=""word"" style=""font-size: 40px;"">catch</p>
          <p style=""font-size: 16px;"">J = YES &nbsp;&nbsp;&nbsp; F = NO</p>
        ","null","html-keyboard-response","361","2.1.0","524410","J=YES, F=NO","umcuhysdj5","1","60","80","40","","","","","","","","","catch","train","metaphor","experimental","j","false","",""
"172","<p>Excellent! You have finished block 3 of 8.</p>
                     <p>Feel free to take a 30 second break.</p>
                     <p>Press any key when you're ready to continue.</p>","j","html-keyboard-response","362","2.1.0","524584","J=YES, F=NO","umcuhysdj5","1","60","80","40","","","","","","","","","","","","","","","",""
"4243","<p>Starting main block 4 of 8. Press any key to continue.</p>"," ","html-keyboard-response","363","2.1.0","528829","J=YES, F=NO","umcuhysdj5","1","60","80","40","","","","","","","","","","","","","","","",""
"null","<p style=""font-size: 50px;"">+</p>","null","html-keyboard-response","364","2.1.0","529150","J=YES, F=NO","umcuhysdj5","1","60","80","40","","","","","","","","","","","","","","","",""
"null","audio/beep-329314.mp3","null","audio-keyboard-response","365","2.1.0","530693","J=YES, F=NO","umcuhysdj5","1","60","80","40","","","","","","","","","","","","","","","",""
"null","audio/pattern.wav","null","audio-keyboard-response","366","2.1.0","531183","J=YES, F=NO","umcuhysdj5","1","60","80","40","","","","","","","","","","","","","","","",""
"833","
          <p id=""word"" style=""font-size: 40px;"">defeat</p>
          <p style=""font-size: 16px;"">J = YES &nbsp;&nbsp;&nbsp; F = NO</p>
        ","j","html-keyboard-response","367","2.1.0","532018","J=YES, F=NO","umcuhysdj5","1","60","80","40","","","","","","","","","defeat","pattern","unrelated","experimental","j","true","",""
"null","<p style=""font-size: 50px;"">+</p>","null","html-keyboard-response","368","2.1.0","532330","J=YES, F=NO","umcuhysdj5","1","60","80","40","","","","","","","","","","","","","","","",""
"null","audio/beep-329314.mp3","null","audio-keyboard-response","369","2.1.0","533853","J=YES, F=NO","umcuhysdj5","1","60","80","40","","","","","","","","","","","","","","","",""
"null","audio/handle.wav","null","audio-keyboard-response","370","2.1.0","534503","J=YES, F=NO","umcuhysdj5","1","60","80","40","","","","","","","","","","","","","","","",""
"978","
          <p id=""word"" style=""font-size: 40px;"">moutes</p>
          <p style=""font-size: 16px;"">J = YES &nbsp;&nbsp;&nbsp; F = NO</p>
        ","f","html-keyboard-response","371","2.1.0","535483","J=YES, F=NO","umcuhysdj5","1","60","80","40","","","","","","","","","moutes","handle","pseudoword","pseudoword","f","true","",""
"null","<p style=""font-size: 50px;"">+</p>","null","html-keyboard-response","372","2.1.0","535786","J=YES, F=NO","umcuhysdj5","1","60","80","40","","","","","","","","","","","","","","","",""
"null","audio/beep-329314.mp3","null","audio-keyboard-response","373","2.1.0","537313","J=YES, F=NO","umcuhysdj5","1","60","80","40","","","","","","","","","","","","","","","",""
"null","audio/cancer1.wav","null","audio-keyboard-response","374","2.1.0","537963","J=YES, F=NO","umcuhysdj5","1","60","80","40","","","","","","","","","","","","","","","",""
"802","
          <p id=""word"" style=""font-size: 40px;"">draw</p>
          <p style=""font-size: 16px;"">J = YES &nbsp;&nbsp;&nbsp; F = NO</p>
        ","j","html-keyboard-response","375","2.1.0","538767","J=YES, F=NO","umcuhysdj5","1","60","80","40","","","","","","","","","draw","cancer1","filler","filler","j","true","",""
"null","<p style=""font-size: 50px;"">+</p>","null","html-keyboard-response","376","2.1.0","539080","J=YES, F=NO","umcuhysdj5","1","60","80","40","","","","","","","","","","","","","","","",""
"null","audio/beep-329314.mp3","null","audio-keyboard-response","377","2.1.0","540614","J=YES, F=NO","umcuhysdj5","1","60","80","40","","","","","","","","","","","","","","","",""
"null","audio/trout1.wav","null","audio-keyboard-response","378","2.1.0","541223","J=YES, F=NO","umcuhysdj5","1","60","80","40","","","","","","","","","","","","","","","",""
"882","
          <p id=""word"" style=""font-size: 40px;"">spimt</p>
          <p style=""font-size: 16px;"">J = YES &nbsp;&nbsp;&nbsp; F = NO</p>
        ","f","html-keyboard-response","379","2.1.0","542107","J=YES, F=NO","umcuhysdj5","1","60","80","40","","","","","","","","","spimt","trout1","pseudoword","pseudoword","f","true","",""
"null","<p style=""font-size: 50px;"">+</p>","null","html-keyboard-response","380","2.1.0","542410","J=YES, F=NO","umcuhysdj5","1","60","80","40","","","","","","","","","","","","","","","",""
"null","audio/beep-329314.mp3","null","audio-keyboard-response","381","2.1.0","543952","J=YES, F=NO","umcuhysdj5","1","60","80","40","","","","","","","","","","","","","","","",""
"null","audio/account1.wav","null","audio-keyboard-response","382","2.1.0","544623","J=YES, F=NO","umcuhysdj5","1","60","80","40","","","","","","","","","","","","","","","",""
"672","
          <p id=""word"" style=""font-size: 40px;"">open</p>
          <p style=""font-size: 16px;"">J = YES &nbsp;&nbsp;&nbsp; F = NO</p>
        ","j","html-keyboard-response","383","2.1.0","545297","J=YES, F=NO","umcuhysdj5","1","60","80","40","","","","","","","","","open","account1","metaphor","experimental","j","true","",""
"null","<p style=""font-size: 50px;"">+</p>","null","html-keyboard-response","384","2.1.0","545610","J=YES, F=NO","umcuhysdj5","1","60","80","40","","","","","","","","","","","","","","","",""
"null","audio/beep-329314.mp3","null","audio-keyboard-response","385","2.1.0","547133","J=YES, F=NO","umcuhysdj5","1","60","80","40","","","","","","","","","","","","","","","",""
"null","audio/gossip1.wav","null","audio-keyboard-response","386","2.1.0","547783","J=YES, F=NO","umcuhysdj5","1","60","80","40","","","","","","","","","","","","","","","",""
"990","
          <p id=""word"" style=""font-size: 40px;"">wrestle</p>
          <p style=""font-size: 16px;"">J = YES &nbsp;&nbsp;&nbsp; F = NO</p>
        ","j","html-keyboard-response","387","2.1.0","548774","J=YES, F=NO","umcuhysdj5","1","60","80","40","","","","","","","","","wrestle","gossip1","unrelated","experimental","j","true","",""
"null","<p style=""font-size: 50px;"">+</p>","null","html-keyboard-response","388","2.1.0","549090","J=YES, F=NO","umcuhysdj5","1","60","80","40","","","","","","","","","","","","","","","",""
"null","audio/beep-329314.mp3","null","audio-keyboard-response","389","2.1.0","550614","J=YES, F=NO","umcuhysdj5","1","60","80","40","","","","","","","","","","","","","","","",""
"null","audio/stain.wav","null","audio-keyboard-response","390","2.1.0","551286","J=YES, F=NO","umcuhysdj5","1","60","80","40","","","","","","","","","","","","","","","",""
"1365","
          <p id=""word"" style=""font-size: 40px;"">rumpsied</p>
          <p style=""font-size: 16px;"">J = YES &nbsp;&nbsp;&nbsp; F = NO</p>
