"rt","stimulus","response","trial_type","trial_index","plugin_version","time_elapsed","response_mapping","subject_id","list_index","lextale_score","lextale_word_score","lextale_nonword_score","success","timeout","failed_images","failed_audio","failed_video","task","isWord","isDummy","target","prime","prime_type","stimulus_type","correct_response","correct","section","question_order"
"66286","
    <div style=""max-width: 800px; margin: auto; text-align: left;"">
      <h2>STANFORD UNIVERSITY</h2>
      <h3>Research Information Sheet</h3>
      <p><strong>Protocol Director:</strong> Robert Hawkins<br>
      <strong>Protocol Title:</strong> Communication and social cognition in natural audiovisual contexts<br>
      <strong>IRB#:</strong> 77226</p>

      <p><strong>DESCRIPTION:</strong> You are invited to participate in a research study about language and communication. The purpose of the research is to understand how you interact and communicate with other people in naturalistic settings as a fluent English speaker. This research will be conducted through the Prolific platform, including participants from the US, UK, and Canada. If you decide to participate in this research, you will play a communication game in a group with one or more partners.</p>

      <p><strong>TIME INVOLVEMENT:</strong> The task will last the amount of time advertised on Prolific. You are free to withdraw from the study at any time.</p>

      <p><strong>RISKS AND BENEFITS:</strong> You may become frustrated if your partner gets distracted, or experience discomfort if other participants in your group send text that is inappropriate for the task. We ask you to please be respectful of other participants you might be interacting with to mitigate these risks. You may also experience discomfort when being asked to discuss or challenge emotionally salient political beliefs. Study data will be stored securely, in compliance with Stanford University standards, minimizing the risk of confidentiality breach. This study advances our scientific understanding of how people communicate and collaborate in naturalistic settings. This study may lead to further insights about what can go wrong in teamwork, suggest potential interventions to overcome these barriers, and help to develop assistive technologies that collaborate with human partners. We cannot and do not guarantee or promise that you will receive any benefits from this study.</p>

      <p><strong>PAYMENTS:</strong> You will receive payment in the amount advertised on Prolific. If you do not complete this study, you will receive prorated payment based on the time that you have spent. Additionally, you may be eligible for bonus payments as described in the instructions.</p>

      <p><strong>PARTICIPANT’S RIGHTS:</strong> If you have read this form and have decided to participate in this project, please understand your participation is voluntary and you have the right to withdraw your consent or discontinue participation at any time without penalty or loss of benefits to which you are otherwise entitled. The alternative is not to participate. You have the right to refuse to answer particular questions. The results of this research study may be presented at scientific or professional meetings or published in scientific journals. Your individual privacy will be maintained in all published and written data resulting from the study. In accordance with scientific norms, the data from this study may be used or shared with other researchers for future research (after removing personally identifying information) without additional consent from you.</p>

      <p><strong>CONTACT INFORMATION:</strong><br>
      Questions: If you have any questions, concerns or complaints about this research, its procedures, risks and benefits, contact the Protocol Director, Robert Hawkins (<a href=""mailto:rdhawkins@stanford.edu"">rdhawkins@stanford.edu</a>, 217-549-6923).<br>
      Independent Contact: If you are not satisfied with how this study is being conducted, or if you have any concerns, complaints, or general questions about the research or your rights as a participant, please contact the Stanford Institutional Review Board (IRB) to speak to someone independent of the research team at 650-723-2480 or toll free at 1-866-680-2906, or email at <a href=""mailto:irbnon-med@stanford.edu"">irbnon-med@stanford.edu</a>. You can also write to the Stanford IRB, Stanford University, 1705 El Camino Real, Palo Alto, CA 94306.</p>

      <p><strong>Please save or print a copy of this page for your records.</strong></p>
      <p>If you agree to participate in this research, click ""Continue"" below.</p>
    </div>
  ","0","html-button-response","0","2.1.0","66292","F=YES, J=NO","uryg3e6tmb","0","71","83","60","","","","","","","","","","","","","","","",""
"15621","
    <div style=""max-width: 800px; margin: auto; text-align: left;"">
      <h2>Welcome!</h2>
      <p>Thank you for participating in this study. The experiment consists of three parts:</p>
      <ol>
        <li>An English vocabulary test</li>
        <li>A main task in which you will hear and see words, and decide whether the written word is a real English word</li>
        <li>A brief survey about your background</li>
      </ol>
      <p>Each part will be introduced before it begins.</p>
      <p>Please make sure you are in a quiet environment and can hear audio clearly for the final task.</p>
      <p style=""margin-top: 2em;"">Press any key to begin.</p>
    </div>
  "," ","html-keyboard-response","1","2.1.0","81914","F=YES, J=NO","uryg3e6tmb","0","71","83","60","","","","","","","","","","","","","","","",""
"","","","preload","2","2.1.0","83010","F=YES, J=NO","uryg3e6tmb","0","71","83","60","true","false","[]","[]","[]","","","","","","","","","","",""
"4919","
    <div style=""max-width: 800px; margin: auto; text-align: left;"">
      <h2>Part 1: Vocabulary Test</h2>
      <p>You will now complete the first part of the study: a short English vocabulary test.</p>
      <p>This test is called <strong>LexTALE</strong> and helps us get a general sense of your English proficiency.</p>
      <p style=""margin-top: 2em;"">Press any key to continue.</p>
    </div>
  "," ","html-keyboard-response","3","2.1.0","87931","F=YES, J=NO","uryg3e6tmb","0","71","83","60","","","","","","","","","","","","","","","",""
"11801","
    <div style=""max-width: 800px; margin: auto; text-align: left;"">
      <h2>LexTALE Vocabulary Test</h2>
      <p>In this test, you will see a series of letter strings—one at a time.</p>
      <p>Your task is to decide whether each string is a real English word.</p>
      <p><strong>Key responses:</strong></p>
      <ul>
        <li><strong>F</strong> = YES (real English word)</li>
        <li><strong>J</strong> = NO (not a real English word)</li>
      </ul>
      <p>There is no time limit, but please try to be accurate.</p>
      <p style=""margin-top: 2em;"">Press any key to begin.</p>
    </div>
  "," ","html-keyboard-response","4","2.1.0","99732","F=YES, J=NO","uryg3e6tmb","0","71","83","60","","","","","","","","","","","","","","","",""
"4848","
  <p style=""font-size: 40px;"">platery</p>
  <p style=""font-size: 16px;"">F = YES &nbsp;&nbsp;&nbsp; J = NO</p>
","f","html-keyboard-response","5","2.1.0","104581","F=YES, J=NO","uryg3e6tmb","0","71","83","60","","","","","","lextale","false","true","","","","","","","",""
"2559","
  <p style=""font-size: 40px;"">denial</p>
  <p style=""font-size: 16px;"">F = YES &nbsp;&nbsp;&nbsp; J = NO</p>
","f","html-keyboard-response","6","2.1.0","107141","F=YES, J=NO","uryg3e6tmb","0","71","83","60","","","","","","lextale","true","true","","","","","","","",""
"1423","
  <p style=""font-size: 40px;"">marrit</p>
  <p style=""font-size: 16px;"">F = YES &nbsp;&nbsp;&nbsp; J = NO</p>
","f","html-keyboard-response","7","2.1.0","108565","F=YES, J=NO","uryg3e6tmb","0","71","83","60","","","","","","lextale","false","true","","","","","","","",""
"2680","
  <p style=""font-size: 40px;"">bottle</p>
  <p style=""font-size: 16px;"">F = YES &nbsp;&nbsp;&nbsp; J = NO</p>
","f","html-keyboard-response","8","2.1.0","111245","F=YES, J=NO","uryg3e6tmb","0","71","83","60","","","","","","lextale","true","false","","","","","","","",""
"1983","
  <p style=""font-size: 40px;"">birst</p>
  <p style=""font-size: 16px;"">F = YES &nbsp;&nbsp;&nbsp; J = NO</p>
","j","html-keyboard-response","9","2.1.0","113229","F=YES, J=NO","uryg3e6tmb","0","71","83","60","","","","","","lextale","false","false","","","","","","","",""
"783","
  <p style=""font-size: 40px;"">envy</p>
  <p style=""font-size: 16px;"">F = YES &nbsp;&nbsp;&nbsp; J = NO</p>
","f","html-keyboard-response","10","2.1.0","114013","F=YES, J=NO","uryg3e6tmb","0","71","83","60","","","","","","lextale","true","false","","","","","","","",""
"1591","
  <p style=""font-size: 40px;"">brang</p>
  <p style=""font-size: 16px;"">F = YES &nbsp;&nbsp;&nbsp; J = NO</p>
","j","html-keyboard-response","11","2.1.0","115606","F=YES, J=NO","uryg3e6tmb","0","71","83","60","","","","","","lextale","false","false","","","","","","","",""
"639","
  <p style=""font-size: 40px;"">huge</p>
  <p style=""font-size: 16px;"">F = YES &nbsp;&nbsp;&nbsp; J = NO</p>
","f","html-keyboard-response","12","2.1.0","116246","F=YES, J=NO","uryg3e6tmb","0","71","83","60","","","","","","lextale","true","false","","","","","","","",""
"912","
  <p style=""font-size: 40px;"">plove</p>
  <p style=""font-size: 16px;"">F = YES &nbsp;&nbsp;&nbsp; J = NO</p>
","f","html-keyboard-response","13","2.1.0","117158","F=YES, J=NO","uryg3e6tmb","0","71","83","60","","","","","","lextale","false","false","","","","","","","",""
"744","
  <p style=""font-size: 40px;"">border</p>
  <p style=""font-size: 16px;"">F = YES &nbsp;&nbsp;&nbsp; J = NO</p>
","f","html-keyboard-response","14","2.1.0","117902","F=YES, J=NO","uryg3e6tmb","0","71","83","60","","","","","","lextale","true","false","","","","","","","",""
"800","
  <p style=""font-size: 40px;"">flimsy</p>
  <p style=""font-size: 16px;"">F = YES &nbsp;&nbsp;&nbsp; J = NO</p>
","f","html-keyboard-response","15","2.1.0","118702","F=YES, J=NO","uryg3e6tmb","0","71","83","60","","","","","","lextale","true","false","","","","","","","",""
"592","
  <p style=""font-size: 40px;"">drain</p>
  <p style=""font-size: 16px;"">F = YES &nbsp;&nbsp;&nbsp; J = NO</p>
","f","html-keyboard-response","16","2.1.0","119294","F=YES, J=NO","uryg3e6tmb","0","71","83","60","","","","","","lextale","true","false","","","","","","","",""
"607","
  <p style=""font-size: 40px;"">twindle</p>
  <p style=""font-size: 16px;"">F = YES &nbsp;&nbsp;&nbsp; J = NO</p>
","f","html-keyboard-response","17","2.1.0","119902","F=YES, J=NO","uryg3e6tmb","0","71","83","60","","","","","","lextale","false","false","","","","","","","",""
"592","
  <p style=""font-size: 40px;"">propose</p>
  <p style=""font-size: 16px;"">F = YES &nbsp;&nbsp;&nbsp; J = NO</p>
","f","html-keyboard-response","18","2.1.0","120494","F=YES, J=NO","uryg3e6tmb","0","71","83","60","","","","","","lextale","true","false","","","","","","","",""
"1072","
  <p style=""font-size: 40px;"">forlay</p>
  <p style=""font-size: 16px;"">F = YES &nbsp;&nbsp;&nbsp; J = NO</p>
","f","html-keyboard-response","19","2.1.0","121566","F=YES, J=NO","uryg3e6tmb","0","71","83","60","","","","","","lextale","false","false","","","","","","","",""
"903","
  <p style=""font-size: 40px;"">tenant</p>
  <p style=""font-size: 16px;"">F = YES &nbsp;&nbsp;&nbsp; J = NO</p>
","f","html-keyboard-response","20","2.1.0","122470","F=YES, J=NO","uryg3e6tmb","0","71","83","60","","","","","","lextale","true","false","","","","","","","",""
"575","
  <p style=""font-size: 40px;"">strain</p>
  <p style=""font-size: 16px;"">F = YES &nbsp;&nbsp;&nbsp; J = NO</p>
","f","html-keyboard-response","21","2.1.0","123046","F=YES, J=NO","uryg3e6tmb","0","71","83","60","","","","","","lextale","true","false","","","","","","","",""
"744","
  <p style=""font-size: 40px;"">holster</p>
  <p style=""font-size: 16px;"">F = YES &nbsp;&nbsp;&nbsp; J = NO</p>
","f","html-keyboard-response","22","2.1.0","123790","F=YES, J=NO","uryg3e6tmb","0","71","83","60","","","","","","lextale","true","false","","","","","","","",""
"1320","
  <p style=""font-size: 40px;"">hinder</p>
  <p style=""font-size: 16px;"">F = YES &nbsp;&nbsp;&nbsp; J = NO</p>
","f","html-keyboard-response","23","2.1.0","125111","F=YES, J=NO","uryg3e6tmb","0","71","83","60","","","","","","lextale","true","false","","","","","","","",""
"679","
  <p style=""font-size: 40px;"">swindle</p>
  <p style=""font-size: 16px;"">F = YES &nbsp;&nbsp;&nbsp; J = NO</p>
","f","html-keyboard-response","24","2.1.0","125791","F=YES, J=NO","uryg3e6tmb","0","71","83","60","","","","","","lextale","true","false","","","","","","","",""
"2280","
  <p style=""font-size: 40px;"">nuder</p>
  <p style=""font-size: 16px;"">F = YES &nbsp;&nbsp;&nbsp; J = NO</p>
","j","html-keyboard-response","25","2.1.0","128071","F=YES, J=NO","uryg3e6tmb","0","71","83","60","","","","","","lextale","false","false","","","","","","","",""
"615","
  <p style=""font-size: 40px;"">pillow</p>
  <p style=""font-size: 16px;"">F = YES &nbsp;&nbsp;&nbsp; J = NO</p>
","f","html-keyboard-response","26","2.1.0","128687","F=YES, J=NO","uryg3e6tmb","0","71","83","60","","","","","","lextale","true","false","","","","","","","",""
"2056","
  <p style=""font-size: 40px;"">shumble</p>
  <p style=""font-size: 16px;"">F = YES &nbsp;&nbsp;&nbsp; J = NO</p>
","j","html-keyboard-response","27","2.1.0","130743","F=YES, J=NO","uryg3e6tmb","0","71","83","60","","","","","","lextale","false","false","","","","","","","",""
"736","
  <p style=""font-size: 40px;"">thirst</p>
  <p style=""font-size: 16px;"">F = YES &nbsp;&nbsp;&nbsp; J = NO</p>
","f","html-keyboard-response","28","2.1.0","131479","F=YES, J=NO","uryg3e6tmb","0","71","83","60","","","","","","lextale","true","false","","","","","","","",""
"1608","
  <p style=""font-size: 40px;"">unsail</p>
  <p style=""font-size: 16px;"">F = YES &nbsp;&nbsp;&nbsp; J = NO</p>
","f","html-keyboard-response","29","2.1.0","133088","F=YES, J=NO","uryg3e6tmb","0","71","83","60","","","","","","lextale","false","false","","","","","","","",""
"567","
  <p style=""font-size: 40px;"">rifle</p>
  <p style=""font-size: 16px;"">F = YES &nbsp;&nbsp;&nbsp; J = NO</p>
","f","html-keyboard-response","30","2.1.0","133655","F=YES, J=NO","uryg3e6tmb","0","71","83","60","","","","","","lextale","true","false","","","","","","","",""
"735","
  <p style=""font-size: 40px;"">mush</p>
  <p style=""font-size: 16px;"">F = YES &nbsp;&nbsp;&nbsp; J = NO</p>
","f","html-keyboard-response","31","2.1.0","134392","F=YES, J=NO","uryg3e6tmb","0","71","83","60","","","","","","lextale","false","false","","","","","","","",""
"656","
  <p style=""font-size: 40px;"">drench</p>
  <p style=""font-size: 16px;"">F = YES &nbsp;&nbsp;&nbsp; J = NO</p>
","f","html-keyboard-response","32","2.1.0","135048","F=YES, J=NO","uryg3e6tmb","0","71","83","60","","","","","","lextale","true","false","","","","","","","",""
"1616","
  <p style=""font-size: 40px;"">snirt</p>
  <p style=""font-size: 16px;"">F = YES &nbsp;&nbsp;&nbsp; J = NO</p>
","j","html-keyboard-response","33","2.1.0","136664","F=YES, J=NO","uryg3e6tmb","0","71","83","60","","","","","","lextale","false","false","","","","","","","",""
"815","
  <p style=""font-size: 40px;"">bitter</p>
  <p style=""font-size: 16px;"">F = YES &nbsp;&nbsp;&nbsp; J = NO</p>
","f","html-keyboard-response","34","2.1.0","137480","F=YES, J=NO","uryg3e6tmb","0","71","83","60","","","","","","lextale","true","false","","","","","","","",""
"1896","
  <p style=""font-size: 40px;"">pliff</p>
  <p style=""font-size: 16px;"">F = YES &nbsp;&nbsp;&nbsp; J = NO</p>
","j","html-keyboard-response","35","2.1.0","139376","F=YES, J=NO","uryg3e6tmb","0","71","83","60","","","","","","lextale","false","false","","","","","","","",""
"552","
  <p style=""font-size: 40px;"">tablet</p>
  <p style=""font-size: 16px;"">F = YES &nbsp;&nbsp;&nbsp; J = NO</p>
","f","html-keyboard-response","36","2.1.0","139928","F=YES, J=NO","uryg3e6tmb","0","71","83","60","","","","","","lextale","true","false","","","","","","","",""
"680","
  <p style=""font-size: 40px;"">glimmer</p>
  <p style=""font-size: 16px;"">F = YES &nbsp;&nbsp;&nbsp; J = NO</p>
","f","html-keyboard-response","37","2.1.0","140608","F=YES, J=NO","uryg3e6tmb","0","71","83","60","","","","","","lextale","true","false","","","","","","","",""
"1048","
  <p style=""font-size: 40px;"">slink</p>
  <p style=""font-size: 16px;"">F = YES &nbsp;&nbsp;&nbsp; J = NO</p>
","f","html-keyboard-response","38","2.1.0","141656","F=YES, J=NO","uryg3e6tmb","0","71","83","60","","","","","","lextale","true","false","","","","","","","",""
"1272","
  <p style=""font-size: 40px;"">clever</p>
  <p style=""font-size: 16px;"">F = YES &nbsp;&nbsp;&nbsp; J = NO</p>
","f","html-keyboard-response","39","2.1.0","142928","F=YES, J=NO","uryg3e6tmb","0","71","83","60","","","","","","lextale","true","false","","","","","","","",""
"1592","
  <p style=""font-size: 40px;"">grum</p>
  <p style=""font-size: 16px;"">F = YES &nbsp;&nbsp;&nbsp; J = NO</p>
","j","html-keyboard-response","40","2.1.0","144521","F=YES, J=NO","uryg3e6tmb","0","71","83","60","","","","","","lextale","false","false","","","","","","","",""
"527","
  <p style=""font-size: 40px;"">string</p>
  <p style=""font-size: 16px;"">F = YES &nbsp;&nbsp;&nbsp; J = NO</p>
","f","html-keyboard-response","41","2.1.0","145049","F=YES, J=NO","uryg3e6tmb","0","71","83","60","","","","","","lextale","true","false","","","","","","","",""
"1287","
  <p style=""font-size: 40px;"">plim</p>
  <p style=""font-size: 16px;"">F = YES &nbsp;&nbsp;&nbsp; J = NO</p>
","j","html-keyboard-response","42","2.1.0","146337","F=YES, J=NO","uryg3e6tmb","0","71","83","60","","","","","","lextale","false","false","","","","","","","",""
"568","
  <p style=""font-size: 40px;"">cable</p>
  <p style=""font-size: 16px;"">F = YES &nbsp;&nbsp;&nbsp; J = NO</p>
","f","html-keyboard-response","43","2.1.0","146905","F=YES, J=NO","uryg3e6tmb","0","71","83","60","","","","","","lextale","true","false","","","","","","","",""
"2464","
  <p style=""font-size: 40px;"">shrivel</p>
  <p style=""font-size: 16px;"">F = YES &nbsp;&nbsp;&nbsp; J = NO</p>
","f","html-keyboard-response","44","2.1.0","149369","F=YES, J=NO","uryg3e6tmb","0","71","83","60","","","","","","lextale","true","false","","","","","","","",""
"599","
  <p style=""font-size: 40px;"">tarnish</p>
  <p style=""font-size: 16px;"">F = YES &nbsp;&nbsp;&nbsp; J = NO</p>
","f","html-keyboard-response","45","2.1.0","149969","F=YES, J=NO","uryg3e6tmb","0","71","83","60","","","","","","lextale","true","false","","","","","","","",""
"720","
  <p style=""font-size: 40px;"">blim</p>
  <p style=""font-size: 16px;"">F = YES &nbsp;&nbsp;&nbsp; J = NO</p>
","f","html-keyboard-response","46","2.1.0","150689","F=YES, J=NO","uryg3e6tmb","0","71","83","60","","","","","","lextale","false","false","","","","","","","",""
"1712","
  <p style=""font-size: 40px;"">stifle</p>
  <p style=""font-size: 16px;"">F = YES &nbsp;&nbsp;&nbsp; J = NO</p>
","f","html-keyboard-response","47","2.1.0","152401","F=YES, J=NO","uryg3e6tmb","0","71","83","60","","","","","","lextale","true","false","","","","","","","",""
"1768","
  <p style=""font-size: 40px;"">bint</p>
  <p style=""font-size: 16px;"">F = YES &nbsp;&nbsp;&nbsp; J = NO</p>
","j","html-keyboard-response","48","2.1.0","154170","F=YES, J=NO","uryg3e6tmb","0","71","83","60","","","","","","lextale","false","false","","","","","","","",""
"560","
  <p style=""font-size: 40px;"">purple</p>
  <p style=""font-size: 16px;"">F = YES &nbsp;&nbsp;&nbsp; J = NO</p>
","f","html-keyboard-response","49","2.1.0","154730","F=YES, J=NO","uryg3e6tmb","0","71","83","60","","","","","","lextale","true","false","","","","","","","",""
"1303","
  <p style=""font-size: 40px;"">wriggle</p>
  <p style=""font-size: 16px;"">F = YES &nbsp;&nbsp;&nbsp; J = NO</p>
","j","html-keyboard-response","50","2.1.0","156034","F=YES, J=NO","uryg3e6tmb","0","71","83","60","","","","","","lextale","true","false","","","","","","","",""
"1304","
  <p style=""font-size: 40px;"">mangle</p>
  <p style=""font-size: 16px;"">F = YES &nbsp;&nbsp;&nbsp; J = NO</p>
","f","html-keyboard-response","51","2.1.0","157338","F=YES, J=NO","uryg3e6tmb","0","71","83","60","","","","","","lextale","true","false","","","","","","","",""
"1792","
  <p style=""font-size: 40px;"">shramp</p>
  <p style=""font-size: 16px;"">F = YES &nbsp;&nbsp;&nbsp; J = NO</p>
","j","html-keyboard-response","52","2.1.0","159130","F=YES, J=NO","uryg3e6tmb","0","71","83","60","","","","","","lextale","false","false","","","","","","","",""
"1280","
  <p style=""font-size: 40px;"">flirt</p>
  <p style=""font-size: 16px;"">F = YES &nbsp;&nbsp;&nbsp; J = NO</p>
","f","html-keyboard-response","53","2.1.0","160410","F=YES, J=NO","uryg3e6tmb","0","71","83","60","","","","","","lextale","true","false","","","","","","","",""
"1056","
  <p style=""font-size: 40px;"">frip</p>
  <p style=""font-size: 16px;"">F = YES &nbsp;&nbsp;&nbsp; J = NO</p>
","j","html-keyboard-response","54","2.1.0","161466","F=YES, J=NO","uryg3e6tmb","0","71","83","60","","","","","","lextale","false","false","","","","","","","",""
"584","
  <p style=""font-size: 40px;"">tangle</p>
  <p style=""font-size: 16px;"">F = YES &nbsp;&nbsp;&nbsp; J = NO</p>
","f","html-keyboard-response","55","2.1.0","162051","F=YES, J=NO","uryg3e6tmb","0","71","83","60","","","","","","lextale","true","false","","","","","","","",""
"671","
  <p style=""font-size: 40px;"">crumble</p>
  <p style=""font-size: 16px;"">F = YES &nbsp;&nbsp;&nbsp; J = NO</p>
","f","html-keyboard-response","56","2.1.0","162722","F=YES, J=NO","uryg3e6tmb","0","71","83","60","","","","","","lextale","true","false","","","","","","","",""
"616","
  <p style=""font-size: 40px;"">wrinkle</p>
  <p style=""font-size: 16px;"">F = YES &nbsp;&nbsp;&nbsp; J = NO</p>
","f","html-keyboard-response","57","2.1.0","163339","F=YES, J=NO","uryg3e6tmb","0","71","83","60","","","","","","lextale","true","false","","","","","","","",""
"1560","
  <p style=""font-size: 40px;"">slumb</p>
  <p style=""font-size: 16px;"">F = YES &nbsp;&nbsp;&nbsp; J = NO</p>
","j","html-keyboard-response","58","2.1.0","164899","F=YES, J=NO","uryg3e6tmb","0","71","83","60","","","","","","lextale","false","false","","","","","","","",""
"511","
  <p style=""font-size: 40px;"">jungle</p>
  <p style=""font-size: 16px;"">F = YES &nbsp;&nbsp;&nbsp; J = NO</p>
","f","html-keyboard-response","59","2.1.0","165411","F=YES, J=NO","uryg3e6tmb","0","71","83","60","","","","","","lextale","true","false","","","","","","","",""
"1000","
  <p style=""font-size: 40px;"">frolick</p>
  <p style=""font-size: 16px;"">F = YES &nbsp;&nbsp;&nbsp; J = NO</p>
","f","html-keyboard-response","60","2.1.0","166411","F=YES, J=NO","uryg3e6tmb","0","71","83","60","","","","","","lextale","false","false","","","","","","","",""
"2807","
      <h2>LexTALE Test Completed</h2>
      <p>Your LexTALE vocabulary score is: <strong>71%</strong></p>
      <p>Press any key to continue.</p>
    "," ","html-keyboard-response","61","2.1.0","169219","F=YES, J=NO","uryg3e6tmb","0","71","83","60","","","","","","","","","","","","","","","",""
"42180","
    <div style=""max-width: 800px; margin: auto; text-align: left;"">
      <h2>Break Time</h2>
      <p>You have completed the first part of the study.</p>
      <p>You may take a short <strong>30-second break</strong> before continuing.</p>
      <p>When you’re ready, press any key to continue to the final task.</p>
    </div>
  ","Control","html-keyboard-response","62","2.1.0","211400","F=YES, J=NO","uryg3e6tmb","0","71","83","60","","","","","","","","","","","","","","","",""
"103","
    <div style=""max-width: 800px; margin: auto; text-align: left;"">
      <h2>Part 2: Lexical Decision Task</h2>
      <p>You will now begin the second part of the study.</p>
      <p>Each trial will follow this sequence:</p>
      <ul>
        <li>A fixation cross (+) appears at the center of the screen.</li>
        <li>You will hear a short beep followed by a spoken word.</li>
        <li>A written word will appear briefly on the screen.</li>
      </ul>
      <p>Your task is to judge whether the <strong>written word</strong> is a real English word.</p>
      <p style=""margin-top: 1em;""><strong>Key responses:</strong></p>
      <ul>
        <li><strong>F</strong> = YES (real English word)</li>
        <li><strong>J</strong> = NO (not a real English word)</li>
      </ul>
      <p>Please respond as quickly and accurately as you can.</p>
      <p style=""margin-top: 2em;"">Press any key to continue.</p>
    </div>
  ","Shift","html-keyboard-response","63","2.1.0","211504","F=YES, J=NO","uryg3e6tmb","0","71","83","60","","","","","","","","","","","","","","","",""
"60822","
    <div style=""max-width: 800px; margin: auto; text-align: left;"">
      <h2>Before You Begin</h2>
      <p>Make sure your sound is turned on.</p>
      <p>You will hear audio during each trial, but your decision should be based only on the <strong>written word</strong> you see on the screen.</p>
      <p><strong>Reminder:</strong></p>
      <ul>
        <li><strong>F</strong> = YES (real English word)</li>
        <li><strong>J</strong> = NO (not a real English word)</li>
      </ul>
      <p style=""margin-top: 2em;"">Press any key when you are ready to begin.</p>
    </div>
  "," ","html-keyboard-response","64","2.1.0","272326","F=YES, J=NO","uryg3e6tmb","0","71","83","60","","","","","","","","","","","","","","","",""
"3520","
    <div style=""max-width: 800px; margin: auto; text-align: left;"">
      <h2>Part 2: Practice Trials</h2>
      <p>You will now complete a few <strong>practice trials</strong> to get familiar with the task.</p>
      <p>These trials are <strong>not scored</strong> and are only to help you get used to the format.</p>
      <p style=""margin-top: 2em;"">Press any key to begin.</p>
    </div>
  "," ","html-keyboard-response","65","2.1.0","275847","F=YES, J=NO","uryg3e6tmb","0","71","83","60","","","","","","","","","","","","","","","",""
"1231","<p>Starting practice block 1 of 2. Press any key to continue.</p>"," ","html-keyboard-response","66","2.1.0","277079","F=YES, J=NO","uryg3e6tmb","0","71","83","60","","","","","","","","","","","","","","","",""
"null","<p style=""font-size: 50px;"">+</p>","null","html-keyboard-response","67","2.1.0","277388","F=YES, J=NO","uryg3e6tmb","0","71","83","60","","","","","","","","","","","","","","","",""
"null","audio/beep-329314.mp3","null","audio-keyboard-response","68","2.1.0","278983","F=YES, J=NO","uryg3e6tmb","0","71","83","60","","","","","","","","","","","","","","","",""
"null","audio/hawk1.wav","null","audio-keyboard-response","69","2.1.0","279623","F=YES, J=NO","uryg3e6tmb","0","71","83","60","","","","","","","","","","","","","","","",""
"null","
          <p id=""word"" style=""font-size: 40px;"">ostach</p>
          <p style=""font-size: 16px;"">F = YES &nbsp;&nbsp;&nbsp; J = NO</p>
        ","null","html-keyboard-response","70","2.1.0","281126","F=YES, J=NO","uryg3e6tmb","0","71","83","60","","","","","","","","","ostach","hawk1","pseudoword","pseudoword","j","false","",""
"null","<p style=""font-size: 50px;"">+</p>","null","html-keyboard-response","71","2.1.0","281438","F=YES, J=NO","uryg3e6tmb","0","71","83","60","","","","","","","","","","","","","","","",""
"null","audio/beep-329314.mp3","null","audio-keyboard-response","72","2.1.0","282963","F=YES, J=NO","uryg3e6tmb","0","71","83","60","","","","","","","","","","","","","","","",""
"null","audio/age1.wav","null","audio-keyboard-response","73","2.1.0","283563","F=YES, J=NO","uryg3e6tmb","0","71","83","60","","","","","","","","","","","","","","","",""
"null","
          <p id=""word"" style=""font-size: 40px;"">bake</p>
          <p style=""font-size: 16px;"">F = YES &nbsp;&nbsp;&nbsp; J = NO</p>
        ","null","html-keyboard-response","74","2.1.0","285067","F=YES, J=NO","uryg3e6tmb","0","71","83","60","","","","","","","","","bake","age1","filler","filler","f","false","",""
"null","<p style=""font-size: 50px;"">+</p>","null","html-keyboard-response","75","2.1.0","285380","F=YES, J=NO","uryg3e6tmb","0","71","83","60","","","","","","","","","","","","","","","",""
"null","audio/beep-329314.mp3","null","audio-keyboard-response","76","2.1.0","286903","F=YES, J=NO","uryg3e6tmb","0","71","83","60","","","","","","","","","","","","","","","",""
"null","audio/terrain.wav","null","audio-keyboard-response","77","2.1.0","287543","F=YES, J=NO","uryg3e6tmb","0","71","83","60","","","","","","","","","","","","","","","",""
"null","
          <p id=""word"" style=""font-size: 40px;"">twist</p>
          <p style=""font-size: 16px;"">F = YES &nbsp;&nbsp;&nbsp; J = NO</p>
        ","null","html-keyboard-response","78","2.1.0","289048","F=YES, J=NO","uryg3e6tmb","0","71","83","60","","","","","","","","","twist","terrain","filler","filler","f","false","",""
"null","<p style=""font-size: 50px;"">+</p>","null","html-keyboard-response","79","2.1.0","289361","F=YES, J=NO","uryg3e6tmb","0","71","83","60","","","","","","","","","","","","","","","",""
"null","audio/beep-329314.mp3","null","audio-keyboard-response","80","2.1.0","290883","F=YES, J=NO","uryg3e6tmb","0","71","83","60","","","","","","","","","","","","","","","",""
"null","audio/holiday1.wav","null","audio-keyboard-response","81","2.1.0","291563","F=YES, J=NO","uryg3e6tmb","0","71","83","60","","","","","","","","","","","","","","","",""
"null","
          <p id=""word"" style=""font-size: 40px;"">drivets</p>
          <p style=""font-size: 16px;"">F = YES &nbsp;&nbsp;&nbsp; J = NO</p>
        ","null","html-keyboard-response","82","2.1.0","293073","F=YES, J=NO","uryg3e6tmb","0","71","83","60","","","","","","","","","drivets","holiday1","pseudoword","pseudoword","j","false","",""
"null","<p style=""font-size: 50px;"">+</p>","null","html-keyboard-response","83","2.1.0","293386","F=YES, J=NO","uryg3e6tmb","0","71","83","60","","","","","","","","","","","","","","","",""
"null","audio/beep-329314.mp3","null","audio-keyboard-response","84","2.1.0","294923","F=YES, J=NO","uryg3e6tmb","0","71","83","60","","","","","","","","","","","","","","","",""
"null","audio/age1.wav","null","audio-keyboard-response","85","2.1.0","295463","F=YES, J=NO","uryg3e6tmb","0","71","83","60","","","","","","","","","","","","","","","",""
"null","
          <p id=""word"" style=""font-size: 40px;"">lachry</p>
          <p style=""font-size: 16px;"">F = YES &nbsp;&nbsp;&nbsp; J = NO</p>
        ","null","html-keyboard-response","86","2.1.0","296980","F=YES, J=NO","uryg3e6tmb","0","71","83","60","","","","","","","","","lachry","age1","pseudoword","pseudoword","j","false","",""
"null","<p style=""font-size: 50px;"">+</p>","null","html-keyboard-response","87","2.1.0","297293","F=YES, J=NO","uryg3e6tmb","0","71","83","60","","","","","","","","","","","","","","","",""
"null","audio/beep-329314.mp3","null","audio-keyboard-response","88","2.1.0","298823","F=YES, J=NO","uryg3e6tmb","0","71","83","60","","","","","","","","","","","","","","","",""
"null","audio/account1.wav","null","audio-keyboard-response","89","2.1.0","299503","F=YES, J=NO","uryg3e6tmb","0","71","83","60","","","","","","","","","","","","","","","",""
"1002","
          <p id=""word"" style=""font-size: 40px;"">paint</p>
          <p style=""font-size: 16px;"">F = YES &nbsp;&nbsp;&nbsp; J = NO</p>
        ","f","html-keyboard-response","90","2.1.0","300505","F=YES, J=NO","uryg3e6tmb","0","71","83","60","","","","","","","","","paint","account1","filler","filler","f","true","",""
"null","<p style=""font-size: 50px;"">+</p>","null","html-keyboard-response","91","2.1.0","300810","F=YES, J=NO","uryg3e6tmb","0","71","83","60","","","","","","","","","","","","","","","",""
"null","audio/beep-329314.mp3","null","audio-keyboard-response","92","2.1.0","302344","F=YES, J=NO","uryg3e6tmb","0","71","83","60","","","","","","","","","","","","","","","",""
"null","audio/ankle1.wav","null","audio-keyboard-response","93","2.1.0","302924","F=YES, J=NO","uryg3e6tmb","0","71","83","60","","","","","","","","","","","","","","","",""
"null","
          <p id=""word"" style=""font-size: 40px;"">kick</p>
          <p style=""font-size: 16px;"">F = YES &nbsp;&nbsp;&nbsp; J = NO</p>
        ","null","html-keyboard-response","94","2.1.0","304428","F=YES, J=NO","uryg3e6tmb","0","71","83","60","","","","","","","","","kick","ankle1","filler","filler","f","false","",""
"null","<p style=""font-size: 50px;"">+</p>","null","html-keyboard-response","95","2.1.0","304741","F=YES, J=NO","uryg3e6tmb","0","71","83","60","","","","","","","","","","","","","","","",""
"null","audio/beep-329314.mp3","null","audio-keyboard-response","96","2.1.0","306263","F=YES, J=NO","uryg3e6tmb","0","71","83","60","","","","","","","","","","","","","","","",""
"null","audio/neck.wav","null","audio-keyboard-response","97","2.1.0","306863","F=YES, J=NO","uryg3e6tmb","0","71","83","60","","","","","","","","","","","","","","","",""
"null","
          <p id=""word"" style=""font-size: 40px;"">werling</p>
          <p style=""font-size: 16px;"">F = YES &nbsp;&nbsp;&nbsp; J = NO</p>
        ","null","html-keyboard-response","98","2.1.0","308376","F=YES, J=NO","uryg3e6tmb","0","71","83","60","","","","","","","","","werling","neck","pseudoword","pseudoword","j","false","",""
"null","<p style=""font-size: 50px;"">+</p>","null","html-keyboard-response","99","2.1.0","308686","F=YES, J=NO","uryg3e6tmb","0","71","83","60","","","","","","","","","","","","","","","",""
"null","audio/beep-329314.mp3","null","audio-keyboard-response","100","2.1.0","310223","F=YES, J=NO","uryg3e6tmb","0","71","83","60","","","","","","","","","","","","","","","",""
"null","audio/battle1.wav","null","audio-keyboard-response","101","2.1.0","310743","F=YES, J=NO","uryg3e6tmb","0","71","83","60","","","","","","","","","","","","","","","",""
"null","
          <p id=""word"" style=""font-size: 40px;"">boil</p>
          <p style=""font-size: 16px;"">F = YES &nbsp;&nbsp;&nbsp; J = NO</p>
        ","null","html-keyboard-response","102","2.1.0","312254","F=YES, J=NO","uryg3e6tmb","0","71","83","60","","","","","","","","","boil","battle1","filler","filler","f","false","",""
"null","<p style=""font-size: 50px;"">+</p>","null","html-keyboard-response","103","2.1.0","312568","F=YES, J=NO","uryg3e6tmb","0","71","83","60","","","","","","","","","","","","","","","",""
"null","audio/beep-329314.mp3","null","audio-keyboard-response","104","2.1.0","314103","F=YES, J=NO","uryg3e6tmb","0","71","83","60","","","","","","","","","","","","","","","",""
"null","audio/bishop1.wav","null","audio-keyboard-response","105","2.1.0","314743","F=YES, J=NO","uryg3e6tmb","0","71","83","60","","","","","","","","","","","","","","","",""
"null","
          <p id=""word"" style=""font-size: 40px;"">play</p>
          <p style=""font-size: 16px;"">F = YES &nbsp;&nbsp;&nbsp; J = NO</p>
        ","null","html-keyboard-response","106","2.1.0","316258","F=YES, J=NO","uryg3e6tmb","0","71","83","60","","","","","","","","","play","bishop1","filler","filler","f","false","",""
"null","<p style=""font-size: 50px;"">+</p>","null","html-keyboard-response","107","2.1.0","316572","F=YES, J=NO","uryg3e6tmb","0","71","83","60","","","","","","","","","","","","","","","",""
"null","audio/beep-329314.mp3","null","audio-keyboard-response","108","2.1.0","318103","F=YES, J=NO","uryg3e6tmb","0","71","83","60","","","","","","","","","","","","","","","",""
"null","audio/planet1.wav","null","audio-keyboard-response","109","2.1.0","318764","F=YES, J=NO","uryg3e6tmb","0","71","83","60","","","","","","","","","","","","","","","",""
"null","
          <p id=""word"" style=""font-size: 40px;"">cratched</p>
          <p style=""font-size: 16px;"">F = YES &nbsp;&nbsp;&nbsp; J = NO</p>
        ","null","html-keyboard-response","110","2.1.0","320278","F=YES, J=NO","uryg3e6tmb","0","71","83","60","","","","","","","","","cratched","planet1","pseudoword","pseudoword","j","false","",""
"null","<p style=""font-size: 50px;"">+</p>","null","html-keyboard-response","111","2.1.0","320588","F=YES, J=NO","uryg3e6tmb","0","71","83","60","","","","","","","","","","","","","","","",""
"null","audio/beep-329314.mp3","null","audio-keyboard-response","112","2.1.0","322124","F=YES, J=NO","uryg3e6tmb","0","71","83","60","","","","","","","","","","","","","","","",""
"null","audio/butter1.wav","null","audio-keyboard-response","113","2.1.0","322623","F=YES, J=NO","uryg3e6tmb","0","71","83","60","","","","","","","","","","","","","","","",""
"null","
          <p id=""word"" style=""font-size: 40px;"">chew</p>
          <p style=""font-size: 16px;"">F = YES &nbsp;&nbsp;&nbsp; J = NO</p>
        ","null","html-keyboard-response","114","2.1.0","324134","F=YES, J=NO","uryg3e6tmb","0","71","83","60","","","","","","","","","chew","butter1","filler","filler","f","false","",""
"1414","<p>Starting practice block 2 of 2. Press any key to continue.</p>"," ","html-keyboard-response","115","2.1.0","325548","F=YES, J=NO","uryg3e6tmb","0","71","83","60","","","","","","","","","","","","","","","",""
"null","<p style=""font-size: 50px;"">+</p>","null","html-keyboard-response","116","2.1.0","325861","F=YES, J=NO","uryg3e6tmb","0","71","83","60","","","","","","","","","","","","","","","",""
"null","audio/beep-329314.mp3","null","audio-keyboard-response","117","2.1.0","327383","F=YES, J=NO","uryg3e6tmb","0","71","83","60","","","","","","","","","","","","","","","",""
"null","audio/menu.wav","null","audio-keyboard-response","118","2.1.0","327943","F=YES, J=NO","uryg3e6tmb","0","71","83","60","","","","","","","","","","","","","","","",""
"null","
          <p id=""word"" style=""font-size: 40px;"">slice</p>
          <p style=""font-size: 16px;"">F = YES &nbsp;&nbsp;&nbsp; J = NO</p>
        ","null","html-keyboard-response","119","2.1.0","329458","F=YES, J=NO","uryg3e6tmb","0","71","83","60","","","","","","","","","slice","menu","filler","filler","f","false","",""
"null","<p style=""font-size: 50px;"">+</p>","null","html-keyboard-response","120","2.1.0","329772","F=YES, J=NO","uryg3e6tmb","0","71","83","60","","","","","","","","","","","","","","","",""
"null","audio/beep-329314.mp3","null","audio-keyboard-response","121","2.1.0","331303","F=YES, J=NO","uryg3e6tmb","0","71","83","60","","","","","","","","","","","","","","","",""
"null","audio/empire.wav","null","audio-keyboard-response","122","2.1.0","332003","F=YES, J=NO","uryg3e6tmb","0","71","83","60","","","","","","","","","","","","","","","",""
"null","
          <p id=""word"" style=""font-size: 40px;"">slorby</p>
          <p style=""font-size: 16px;"">F = YES &nbsp;&nbsp;&nbsp; J = NO</p>
        ","null","html-keyboard-response","123","2.1.0","333518","F=YES, J=NO","uryg3e6tmb","0","71","83","60","","","","","","","","","slorby","empire","pseudoword","pseudoword","j","false","",""
"null","<p style=""font-size: 50px;"">+</p>","null","html-keyboard-response","124","2.1.0","333831","F=YES, J=NO","uryg3e6tmb","0","71","83","60","","","","","","","","","","","","","","","",""
"null","audio/beep-329314.mp3","null","audio-keyboard-response","125","2.1.0","335363","F=YES, J=NO","uryg3e6tmb","0","71","83","60","","","","","","","","","","","","","","","",""
"null","audio/fence.wav","null","audio-keyboard-response","126","2.1.0","336103","F=YES, J=NO","uryg3e6tmb","0","71","83","60","","","","","","","","","","","","","","","",""
"null","
          <p id=""word"" style=""font-size: 40px;"">trim</p>
          <p style=""font-size: 16px;"">F = YES &nbsp;&nbsp;&nbsp; J = NO</p>
        ","null","html-keyboard-response","127","2.1.0","337618","F=YES, J=NO","uryg3e6tmb","0","71","83","60","","","","","","","","","trim","fence","filler","filler","f","false","",""
"null","<p style=""font-size: 50px;"">+</p>","null","html-keyboard-response","128","2.1.0","337930","F=YES, J=NO","uryg3e6tmb","0","71","83","60","","","","","","","","","","","","","","","",""
"null","audio/beep-329314.mp3","null","audio-keyboard-response","129","2.1.0","339463","F=YES, J=NO","uryg3e6tmb","0","71","83","60","","","","","","","","","","","","","","","",""
"null","audio/tunnel.wav","null","audio-keyboard-response","130","2.1.0","339943","F=YES, J=NO","uryg3e6tmb","0","71","83","60","","","","","","","","","","","","","","","",""
"null","
          <p id=""word"" style=""font-size: 40px;"">gred</p>
          <p style=""font-size: 16px;"">F = YES &nbsp;&nbsp;&nbsp; J = NO</p>
        ","null","html-keyboard-response","131","2.1.0","341450","F=YES, J=NO","uryg3e6tmb","0","71","83","60","","","","","","","","","gred","tunnel","pseudoword","pseudoword","j","false","",""
"null","<p style=""font-size: 50px;"">+</p>","null","html-keyboard-response","132","2.1.0","341761","F=YES, J=NO","uryg3e6tmb","0","71","83","60","","","","","","","","","","","","","","","",""
"null","audio/beep-329314.mp3","null","audio-keyboard-response","133","2.1.0","343283","F=YES, J=NO","uryg3e6tmb","0","71","83","60","","","","","","","","","","","","","","","",""
"null","audio/foe1.wav","null","audio-keyboard-response","134","2.1.0","343844","F=YES, J=NO","uryg3e6tmb","0","71","83","60","","","","","","","","","","","","","","","",""
"null","
          <p id=""word"" style=""font-size: 40px;"">creth</p>
          <p style=""font-size: 16px;"">F = YES &nbsp;&nbsp;&nbsp; J = NO</p>
        ","null","html-keyboard-response","135","2.1.0","345347","F=YES, J=NO","uryg3e6tmb","0","71","83","60","","","","","","","","","creth","foe1","pseudoword","pseudoword","j","false","",""
"null","<p style=""font-size: 50px;"">+</p>","null","html-keyboard-response","136","2.1.0","345659","F=YES, J=NO","uryg3e6tmb","0","71","83","60","","","","","","","","","","","","","","","",""
"null","audio/beep-329314.mp3","null","audio-keyboard-response","137","2.1.0","347183","F=YES, J=NO","uryg3e6tmb","0","71","83","60","","","","","","","","","","","","","","","",""
"null","audio/road.wav","null","audio-keyboard-response","138","2.1.0","347603","F=YES, J=NO","uryg3e6tmb","0","71","83","60","","","","","","","","","","","","","","","",""
"null","
          <p id=""word"" style=""font-size: 40px;"">wappings</p>
          <p style=""font-size: 16px;"">F = YES &nbsp;&nbsp;&nbsp; J = NO</p>
        ","null","html-keyboard-response","139","2.1.0","349108","F=YES, J=NO","uryg3e6tmb","0","71","83","60","","","","","","","","","wappings","road","pseudoword","pseudoword","j","false","",""
"null","<p style=""font-size: 50px;"">+</p>","null","html-keyboard-response","140","2.1.0","349420","F=YES, J=NO","uryg3e6tmb","0","71","83","60","","","","","","","","","","","","","","","",""
"null","audio/beep-329314.mp3","null","audio-keyboard-response","141","2.1.0","350943","F=YES, J=NO","uryg3e6tmb","0","71","83","60","","","","","","","","","","","","","","","",""
"null","audio/belief.wav","null","audio-keyboard-response","142","2.1.0","351623","F=YES, J=NO","uryg3e6tmb","0","71","83","60","","","","","","","","","","","","","","","",""
"null","
          <p id=""word"" style=""font-size: 40px;"">read</p>
          <p style=""font-size: 16px;"">F = YES &nbsp;&nbsp;&nbsp; J = NO</p>
        ","null","html-keyboard-response","143","2.1.0","353134","F=YES, J=NO","uryg3e6tmb","0","71","83","60","","","","","","","","","read","belief","filler","filler","f","false","",""
"null","<p style=""font-size: 50px;"">+</p>","null","html-keyboard-response","144","2.1.0","353449","F=YES, J=NO","uryg3e6tmb","0","71","83","60","","","","","","","","","","","","","","","",""
"null","audio/beep-329314.mp3","null","audio-keyboard-response","145","2.1.0","354983","F=YES, J=NO","uryg3e6tmb","0","71","83","60","","","","","","","","","","","","","","","",""
"null","audio/sugar1.wav","null","audio-keyboard-response","146","2.1.0","355523","F=YES, J=NO","uryg3e6tmb","0","71","83","60","","","","","","","","","","","","","","","",""
"null","
          <p id=""word"" style=""font-size: 40px;"">glung</p>
          <p style=""font-size: 16px;"">F = YES &nbsp;&nbsp;&nbsp; J = NO</p>
        ","null","html-keyboard-response","147","2.1.0","357035","F=YES, J=NO","uryg3e6tmb","0","71","83","60","","","","","","","","","glung","sugar1","pseudoword","pseudoword","j","false","",""
"null","<p style=""font-size: 50px;"">+</p>","null","html-keyboard-response","148","2.1.0","357349","F=YES, J=NO","uryg3e6tmb","0","71","83","60","","","","","","","","","","","","","","","",""
"null","audio/beep-329314.mp3","null","audio-keyboard-response","149","2.1.0","358883","F=YES, J=NO","uryg3e6tmb","0","71","83","60","","","","","","","","","","","","","","","",""
"null","audio/strength.wav","null","audio-keyboard-response","150","2.1.0","359663","F=YES, J=NO","uryg3e6tmb","0","71","83","60","","","","","","","","","","","","","","","",""
"null","
          <p id=""word"" style=""font-size: 40px;"">plabet</p>
          <p style=""font-size: 16px;"">F = YES &nbsp;&nbsp;&nbsp; J = NO</p>
        ","null","html-keyboard-response","151","2.1.0","361172","F=YES, J=NO","uryg3e6tmb","0","71","83","60","","","","","","","","","plabet","strength","pseudoword","pseudoword","j","false","",""
"null","<p style=""font-size: 50px;"">+</p>","null","html-keyboard-response","152","2.1.0","361484","F=YES, J=NO","uryg3e6tmb","0","71","83","60","","","","","","","","","","","","","","","",""
"null","audio/beep-329314.mp3","null","audio-keyboard-response","153","2.1.0","363023","F=YES, J=NO","uryg3e6tmb","0","71","83","60","","","","","","","","","","","","","","","",""
"null","audio/camera1.wav","null","audio-keyboard-response","154","2.1.0","363563","F=YES, J=NO","uryg3e6tmb","0","71","83","60","","","","","","","","","","","","","","","",""
"null","
          <p id=""word"" style=""font-size: 40px;"">stir</p>
          <p style=""font-size: 16px;"">F = YES &nbsp;&nbsp;&nbsp; J = NO</p>
        ","null","html-keyboard-response","155","2.1.0","365078","F=YES, J=NO","uryg3e6tmb","0","71","83","60","","","","","","","","","stir","camera1","filler","filler","f","false","",""
"null","<p style=""font-size: 50px;"">+</p>","null","html-keyboard-response","156","2.1.0","365389","F=YES, J=NO","uryg3e6tmb","0","71","83","60","","","","","","","","","","","","","","","",""
"null","audio/beep-329314.mp3","null","audio-keyboard-response","157","2.1.0","366923","F=YES, J=NO","uryg3e6tmb","0","71","83","60","","","","","","","","","","","","","","","",""
"null","audio/handle.wav","null","audio-keyboard-response","158","2.1.0","367604","F=YES, J=NO","uryg3e6tmb","0","71","83","60","","","","","","","","","","","","","","","",""
"null","
          <p id=""word"" style=""font-size: 40px;"">moutes</p>
          <p style=""font-size: 16px;"">F = YES &nbsp;&nbsp;&nbsp; J = NO</p>
        ","null","html-keyboard-response","159","2.1.0","369113","F=YES, J=NO","uryg3e6tmb","0","71","83","60","","","","","","","","","moutes","handle","pseudoword","pseudoword","j","false","",""
"null","<p style=""font-size: 50px;"">+</p>","null","html-keyboard-response","160","2.1.0","369425","F=YES, J=NO","uryg3e6tmb","0","71","83","60","","","","","","","","","","","","","","","",""
"null","audio/beep-329314.mp3","null","audio-keyboard-response","161","2.1.0","370964","F=YES, J=NO","uryg3e6tmb","0","71","83","60","","","","","","","","","","","","","","","",""
"null","audio/bottle.wav","null","audio-keyboard-response","162","2.1.0","371483","F=YES, J=NO","uryg3e6tmb","0","71","83","60","","","","","","","","","","","","","","","",""
"null","
          <p id=""word"" style=""font-size: 40px;"">watch</p>
          <p style=""font-size: 16px;"">F = YES &nbsp;&nbsp;&nbsp; J = NO</p>
        ","null","html-keyboard-response","163","2.1.0","372997","F=YES, J=NO","uryg3e6tmb","0","71","83","60","","","","","","","","","watch","bottle","filler","filler","f","false","",""
"7932","
    <div style=""max-width: 800px; margin: auto; text-align: left;"">
      <h2>Part 2: Main Trials</h2>
      <p>Great job on the practice trials!</p>
      <p>You will now begin the <strong>main set of trials</strong>.</p>
      <p>Remember your key assignments:</p>
      <ul>
        <li><strong>F</strong> = YES (real English word)</li>
        <li><strong>J</strong> = NO (not a real English word)</li>
      </ul>
      <p>Try to respond as <strong>quickly and accurately</strong> as possible.</p>
      <p style=""margin-top: 2em;"">Press any key to begin the main trials.</p>
    </div>
  "," ","html-keyboard-response","164","2.1.0","380930","F=YES, J=NO","uryg3e6tmb","0","71","83","60","","","","","","","","","","","","","","","",""
"1615","<p>Starting main block 1 of 8. Press any key to continue.</p>"," ","html-keyboard-response","165","2.1.0","382546","F=YES, J=NO","uryg3e6tmb","0","71","83","60","","","","","","","","","","","","","","","",""
"null","<p style=""font-size: 50px;"">+</p>","null","html-keyboard-response","166","2.1.0","382859","F=YES, J=NO","uryg3e6tmb","0","71","83","60","","","","","","","","","","","","","","","",""
"null","audio/beep-329314.mp3","null","audio-keyboard-response","167","2.1.0","384363","F=YES, J=NO","uryg3e6tmb","0","71","83","60","","","","","","","","","","","","","","","",""
"null","audio/cinema1.wav","null","audio-keyboard-response","168","2.1.0","384993","F=YES, J=NO","uryg3e6tmb","0","71","83","60","","","","","","","","","","","","","","","",""
"881","
          <p id=""word"" style=""font-size: 40px;"">murple</p>
          <p style=""font-size: 16px;"">F = YES &nbsp;&nbsp;&nbsp; J = NO</p>
        ","j","html-keyboard-response","169","2.1.0","385874","F=YES, J=NO","uryg3e6tmb","0","71","83","60","","","","","","","","","murple","cinema1","pseudoword","pseudoword","j","true","",""
"null","<p style=""font-size: 50px;"">+</p>","null","html-keyboard-response","170","2.1.0","386181","F=YES, J=NO","uryg3e6tmb","0","71","83","60","","","","","","","","","","","","","","","",""
"null","audio/beep-329314.mp3","null","audio-keyboard-response","171","2.1.0","387703","F=YES, J=NO","uryg3e6tmb","0","71","83","60","","","","","","","","","","","","","","","",""
"null","audio/plane1.wav","null","audio-keyboard-response","172","2.1.0","388133","F=YES, J=NO","uryg3e6tmb","0","71","83","60","","","","","","","","","","","","","","","",""
"517","
          <p id=""word"" style=""font-size: 40px;"">land</p>
          <p style=""font-size: 16px;"">F = YES &nbsp;&nbsp;&nbsp; J = NO</p>
        ","f","html-keyboard-response","173","2.1.0","388651","F=YES, J=NO","uryg3e6tmb","0","71","83","60","","","","","","","","","land","plane1","literal","experimental","f","true","",""
"null","<p style=""font-size: 50px;"">+</p>","null","html-keyboard-response","174","2.1.0","388964","F=YES, J=NO","uryg3e6tmb","0","71","83","60","","","","","","","","","","","","","","","",""
"null","audio/beep-329314.mp3","null","audio-keyboard-response","175","2.1.0","390503","F=YES, J=NO","uryg3e6tmb","0","71","83","60","","","","","","","","","","","","","","","",""
"null","audio/uncle1.wav","null","audio-keyboard-response","176","2.1.0","391033","F=YES, J=NO","uryg3e6tmb","0","71","83","60","","","","","","","","","","","","","","","",""
"985","
          <p id=""word"" style=""font-size: 40px;"">dramble</p>
          <p style=""font-size: 16px;"">F = YES &nbsp;&nbsp;&nbsp; J = NO</p>
        ","j","html-keyboard-response","177","2.1.0","392019","F=YES, J=NO","uryg3e6tmb","0","71","83","60","","","","","","","","","dramble","uncle1","pseudoword","pseudoword","j","true","",""
"null","<p style=""font-size: 50px;"">+</p>","null","html-keyboard-response","178","2.1.0","392335","F=YES, J=NO","uryg3e6tmb","0","71","83","60","","","","","","","","","","","","","","","",""
"null","audio/beep-329314.mp3","null","audio-keyboard-response","179","2.1.0","393863","F=YES, J=NO","uryg3e6tmb","0","71","83","60","","","","","","","","","","","","","","","",""
"null","audio/weight1.wav","null","audio-keyboard-response","180","2.1.0","394433","F=YES, J=NO","uryg3e6tmb","0","71","83","60","","","","","","","","","","","","","","","",""
"866","
          <p id=""word"" style=""font-size: 40px;"">crimsh</p>
          <p style=""font-size: 16px;"">F = YES &nbsp;&nbsp;&nbsp; J = NO</p>
        ","j","html-keyboard-response","181","2.1.0","395300","F=YES, J=NO","uryg3e6tmb","0","71","83","60","","","","","","","","","crimsh","weight1","pseudoword","pseudoword","j","true","",""
"null","<p style=""font-size: 50px;"">+</p>","null","html-keyboard-response","182","2.1.0","395610","F=YES, J=NO","uryg3e6tmb","0","71","83","60","","","","","","","","","","","","","","","",""
"null","audio/beep-329314.mp3","null","audio-keyboard-response","183","2.1.0","397143","F=YES, J=NO","uryg3e6tmb","0","71","83","60","","","","","","","","","","","","","","","",""
"null","audio/alarm1.wav","null","audio-keyboard-response","184","2.1.0","397793","F=YES, J=NO","uryg3e6tmb","0","71","83","60","","","","","","","","","","","","","","","",""
"1042","
          <p id=""word"" style=""font-size: 40px;"">swetp</p>
          <p style=""font-size: 16px;"">F = YES &nbsp;&nbsp;&nbsp; J = NO</p>
        ","j","html-keyboard-response","185","2.1.0","398836","F=YES, J=NO","uryg3e6tmb","0","71","83","60","","","","","","","","","swetp","alarm1","pseudoword","pseudoword","j","true","",""
"null","<p style=""font-size: 50px;"">+</p>","null","html-keyboard-response","186","2.1.0","399147","F=YES, J=NO","uryg3e6tmb","0","71","83","60","","","","","","","","","","","","","","","",""
"null","audio/beep-329314.mp3","null","audio-keyboard-response","187","2.1.0","400683","F=YES, J=NO","uryg3e6tmb","0","71","83","60","","","","","","","","","","","","","","","",""
"null","audio/truth1.wav","null","audio-keyboard-response","188","2.1.0","401273","F=YES, J=NO","uryg3e6tmb","0","71","83","60","","","","","","","","","","","","","","","",""
"1082","
          <p id=""word"" style=""font-size: 40px;"">calitom</p>
          <p style=""font-size: 16px;"">F = YES &nbsp;&nbsp;&nbsp; J = NO</p>
        ","j","html-keyboard-response","189","2.1.0","402356","F=YES, J=NO","uryg3e6tmb","0","71","83","60","","","","","","","","","calitom","truth1","pseudoword","pseudoword","j","true","",""
"null","<p style=""font-size: 50px;"">+</p>","null","html-keyboard-response","190","2.1.0","402661","F=YES, J=NO","uryg3e6tmb","0","71","83","60","","","","","","","","","","","","","","","",""
"null","audio/beep-329314.mp3","null","audio-keyboard-response","191","2.1.0","404183","F=YES, J=NO","uryg3e6tmb","0","71","83","60","","","","","","","","","","","","","","","",""
"null","audio/ankle1.wav","null","audio-keyboard-response","192","2.1.0","404693","F=YES, J=NO","uryg3e6tmb","0","71","83","60","","","","","","","","","","","","","","","",""
"1047","
          <p id=""word"" style=""font-size: 40px;"">switm</p>
          <p style=""font-size: 16px;"">F = YES &nbsp;&nbsp;&nbsp; J = NO</p>
        ","j","html-keyboard-response","193","2.1.0","405741","F=YES, J=NO","uryg3e6tmb","0","71","83","60","","","","","","","","","switm","ankle1","pseudoword","pseudoword","j","true","",""
"null","<p style=""font-size: 50px;"">+</p>","null","html-keyboard-response","194","2.1.0","406046","F=YES, J=NO","uryg3e6tmb","0","71","83","60","","","","","","","","","","","","","","","",""
"null","audio/beep-329314.mp3","null","audio-keyboard-response","195","2.1.0","407583","F=YES, J=NO","uryg3e6tmb","0","71","83","60","","","","","","","","","","","","","","","",""
"null","audio/camp.wav","null","audio-keyboard-response","196","2.1.0","408273","F=YES, J=NO","uryg3e6tmb","0","71","83","60","","","","","","","","","","","","","","","",""
"835","
          <p id=""word"" style=""font-size: 40px;"">touch</p>
          <p style=""font-size: 16px;"">F = YES &nbsp;&nbsp;&nbsp; J = NO</p>
        ","f","html-keyboard-response","197","2.1.0","409109","F=YES, J=NO","uryg3e6tmb","0","71","83","60","","","","","","","","","touch","camp","unrelated","experimental","f","true","",""
"null","<p style=""font-size: 50px;"">+</p>","null","html-keyboard-response","198","2.1.0","409421","F=YES, J=NO","uryg3e6tmb","0","71","83","60","","","","","","","","","","","","","","","",""
"null","audio/beep-329314.mp3","null","audio-keyboard-response","199","2.1.0","410943","F=YES, J=NO","uryg3e6tmb","0","71","83","60","","","","","","","","","","","","","","","",""
"null","audio/gossip1.wav","null","audio-keyboard-response","200","2.1.0","411633","F=YES, J=NO","uryg3e6tmb","0","71","83","60","","","","","","","","","","","","","","","",""
"null","
          <p id=""word"" style=""font-size: 40px;"">camerish</p>
          <p style=""font-size: 16px;"">F = YES &nbsp;&nbsp;&nbsp; J = NO</p>
        ","null","html-keyboard-response","201","2.1.0","413147","F=YES, J=NO","uryg3e6tmb","0","71","83","60","","","","","","","","","camerish","gossip1","pseudoword","pseudoword","j","false","",""
"null","<p style=""font-size: 50px;"">+</p>","null","html-keyboard-response","202","2.1.0","413462","F=YES, J=NO","uryg3e6tmb","0","71","83","60","","","","","","","","","","","","","","","",""
"null","audio/beep-329314.mp3","null","audio-keyboard-response","203","2.1.0","414983","F=YES, J=NO","uryg3e6tmb","0","71","83","60","","","","","","","","","","","","","","","",""
"null","audio/key1.wav","null","audio-keyboard-response","204","2.1.0","415333","F=YES, J=NO","uryg3e6tmb","0","71","83","60","","","","","","","","","","","","","","","",""
"888","
          <p id=""word"" style=""font-size: 40px;"">sminsh</p>
          <p style=""font-size: 16px;"">F = YES &nbsp;&nbsp;&nbsp; J = NO</p>
        ","j","html-keyboard-response","205","2.1.0","416222","F=YES, J=NO","uryg3e6tmb","0","71","83","60","","","","","","","","","sminsh","key1","pseudoword","pseudoword","j","true","",""
"null","<p style=""font-size: 50px;"">+</p>","null","html-keyboard-response","206","2.1.0","416530","F=YES, J=NO","uryg3e6tmb","0","71","83","60","","","","","","","","","","","","","","","",""
"null","audio/beep-329314.mp3","null","audio-keyboard-response","207","2.1.0","418063","F=YES, J=NO","uryg3e6tmb","0","71","83","60","","","","","","","","","","","","","","","",""
"null","audio/grass.wav","null","audio-keyboard-response","208","2.1.0","418753","F=YES, J=NO","uryg3e6tmb","0","71","83","60","","","","","","","","","","","","","","","",""
"772","
          <p id=""word"" style=""font-size: 40px;"">milames</p>
          <p style=""font-size: 16px;"">F = YES &nbsp;&nbsp;&nbsp; J = NO</p>
        ","j","html-keyboard-response","209","2.1.0","419526","F=YES, J=NO","uryg3e6tmb","0","71","83","60","","","","","","","","","milames","grass","pseudoword","pseudoword","j","true","",""
"null","<p style=""font-size: 50px;"">+</p>","null","html-keyboard-response","210","2.1.0","419834","F=YES, J=NO","uryg3e6tmb","0","71","83","60","","","","","","","","","","","","","","","",""
"null","audio/beep-329314.mp3","null","audio-keyboard-response","211","2.1.0","421364","F=YES, J=NO","uryg3e6tmb","0","71","83","60","","","","","","","","","","","","","","","",""
"null","audio/beach1.wav","null","audio-keyboard-response","212","2.1.0","422013","F=YES, J=NO","uryg3e6tmb","0","71","83","60","","","","","","","","","","","","","","","",""
"497","
          <p id=""word"" style=""font-size: 40px;"">drive</p>
          <p style=""font-size: 16px;"">F = YES &nbsp;&nbsp;&nbsp; J = NO</p>
        ","f","html-keyboard-response","213","2.1.0","422510","F=YES, J=NO","uryg3e6tmb","0","71","83","60","","","","","","","","","drive","beach1","filler","filler","f","true","",""
"null","<p style=""font-size: 50px;"">+</p>","null","html-keyboard-response","214","2.1.0","422813","F=YES, J=NO","uryg3e6tmb","0","71","83","60","","","","","","","","","","","","","","","",""
"null","audio/beep-329314.mp3","null","audio-keyboard-response","215","2.1.0","424343","F=YES, J=NO","uryg3e6tmb","0","71","83","60","","","","","","","","","","","","","","","",""
"null","audio/budget1.wav","null","audio-keyboard-response","216","2.1.0","425033","F=YES, J=NO","uryg3e6tmb","0","71","83","60","","","","","","","","","","","","","","","",""
"621","
          <p id=""word"" style=""font-size: 40px;"">cut</p>
          <p style=""font-size: 16px;"">F = YES &nbsp;&nbsp;&nbsp; J = NO</p>
        ","f","html-keyboard-response","217","2.1.0","425655","F=YES, J=NO","uryg3e6tmb","0","71","83","60","","","","","","","","","cut","budget1","metaphor","experimental","f","true","",""
"null","<p style=""font-size: 50px;"">+</p>","null","html-keyboard-response","218","2.1.0","425961","F=YES, J=NO","uryg3e6tmb","0","71","83","60","","","","","","","","","","","","","","","",""
"null","audio/beep-329314.mp3","null","audio-keyboard-response","219","2.1.0","427484","F=YES, J=NO","uryg3e6tmb","0","71","83","60","","","","","","","","","","","","","","","",""
"null","audio/gold1.wav","null","audio-keyboard-response","220","2.1.0","428073","F=YES, J=NO","uryg3e6tmb","0","71","83","60","","","","","","","","","","","","","","","",""
"685","
          <p id=""word"" style=""font-size: 40px;"">sell</p>
          <p style=""font-size: 16px;"">F = YES &nbsp;&nbsp;&nbsp; J = NO</p>
        ","f","html-keyboard-response","221","2.1.0","428759","F=YES, J=NO","uryg3e6tmb","0","71","83","60","","","","","","","","","sell","gold1","literal","experimental","f","true","",""
"null","<p style=""font-size: 50px;"">+</p>","null","html-keyboard-response","222","2.1.0","429062","F=YES, J=NO","uryg3e6tmb","0","71","83","60","","","","","","","","","","","","","","","",""
"null","audio/beep-329314.mp3","null","audio-keyboard-response","223","2.1.0","430583","F=YES, J=NO","uryg3e6tmb","0","71","83","60","","","","","","","","","","","","","","","",""
"null","audio/van1.wav","null","audio-keyboard-response","224","2.1.0","431113","F=YES, J=NO","uryg3e6tmb","0","71","83","60","","","","","","","","","","","","","","","",""
"646","
          <p id=""word"" style=""font-size: 40px;"">push</p>
          <p style=""font-size: 16px;"">F = YES &nbsp;&nbsp;&nbsp; J = NO</p>
        ","f","html-keyboard-response","225","2.1.0","431759","F=YES, J=NO","uryg3e6tmb","0","71","83","60","","","","","","","","","push","van1","filler","filler","f","true","",""
"null","<p style=""font-size: 50px;"">+</p>","null","html-keyboard-response","226","2.1.0","432069","F=YES, J=NO","uryg3e6tmb","0","71","83","60","","","","","","","","","","","","","","","",""
"null","audio/beep-329314.mp3","null","audio-keyboard-response","227","2.1.0","433604","F=YES, J=NO","uryg3e6tmb","0","71","83","60","","","","","","","","","","","","","","","",""
"null","audio/cave1.wav","null","audio-keyboard-response","228","2.1.0","434193","F=YES, J=NO","uryg3e6tmb","0","71","83","60","","","","","","","","","","","","","","","",""
"478","
          <p id=""word"" style=""font-size: 40px;"">hurt</p>
          <p style=""font-size: 16px;"">F = YES &nbsp;&nbsp;&nbsp; J = NO</p>
        ","f","html-keyboard-response","229","2.1.0","434672","F=YES, J=NO","uryg3e6tmb","0","71","83","60","","","","","","","","","hurt","cave1","unrelated","experimental","f","true","",""
"1824","<p>Excellent! You have finished block 1 of 8.</p>
                     <p>Feel free to take a 30 second break.</p>
                     <p>Press any key when you're ready to continue.</p>"," ","html-keyboard-response","230","2.1.0","436496","F=YES, J=NO","uryg3e6tmb","0","71","83","60","","","","","","","","","","","","","","","",""
"1055","<p>Starting main block 2 of 8. Press any key to continue.</p>"," ","html-keyboard-response","231","2.1.0","437552","F=YES, J=NO","uryg3e6tmb","0","71","83","60","","","","","","","","","","","","","","","",""
"null","<p style=""font-size: 50px;"">+</p>","null","html-keyboard-response","232","2.1.0","437857","F=YES, J=NO","uryg3e6tmb","0","71","83","60","","","","","","","","","","","","","","","",""
"null","audio/beep-329314.mp3","null","audio-keyboard-response","233","2.1.0","439383","F=YES, J=NO","uryg3e6tmb","0","71","83","60","","","","","","","","","","","","","","","",""
"null","audio/ego.wav","null","audio-keyboard-response","234","2.1.0","439973","F=YES, J=NO","uryg3e6tmb","0","71","83","60","","","","","","","","","","","","","","","",""
"826","
          <p id=""word"" style=""font-size: 40px;"">bruite</p>
          <p style=""font-size: 16px;"">F = YES &nbsp;&nbsp;&nbsp; J = NO</p>
        ","j","html-keyboard-response","235","2.1.0","440800","F=YES, J=NO","uryg3e6tmb","0","71","83","60","","","","","","","","","bruite","ego","pseudoword","pseudoword","j","true","",""
"null","<p style=""font-size: 50px;"">+</p>","null","html-keyboard-response","236","2.1.0","441105","F=YES, J=NO","uryg3e6tmb","0","71","83","60","","","","","","","","","","","","","","","",""
"null","audio/beep-329314.mp3","null","audio-keyboard-response","237","2.1.0","442643","F=YES, J=NO","uryg3e6tmb","0","71","83","60","","","","","","","","","","","","","","","",""
"null","audio/case1.wav","null","audio-keyboard-response","238","2.1.0","443193","F=YES, J=NO","uryg3e6tmb","0","71","83","60","","","","","","","","","","","","","","","",""
"463","
          <p id=""word"" style=""font-size: 40px;"">close</p>
          <p style=""font-size: 16px;"">F = YES &nbsp;&nbsp;&nbsp; J = NO</p>
        ","f","html-keyboard-response","239","2.1.0","443657","F=YES, J=NO","uryg3e6tmb","0","71","83","60","","","","","","","","","close","case1","metaphor","experimental","f","true","",""
"null","<p style=""font-size: 50px;"">+</p>","null","html-keyboard-response","240","2.1.0","443968","F=YES, J=NO","uryg3e6tmb","0","71","83","60","","","","","","","","","","","","","","","",""
"null","audio/beep-329314.mp3","null","audio-keyboard-response","241","2.1.0","445503","F=YES, J=NO","uryg3e6tmb","0","71","83","60","","","","","","","","","","","","","","","",""
"null","audio/news.wav","null","audio-keyboard-response","242","2.1.0","446193","F=YES, J=NO","uryg3e6tmb","0","71","83","60","","","","","","","","","","","","","","","",""
"695","
          <p id=""word"" style=""font-size: 40px;"">digest</p>
          <p style=""font-size: 16px;"">F = YES &nbsp;&nbsp;&nbsp; J = NO</p>
        ","f","html-keyboard-response","243","2.1.0","446889","F=YES, J=NO","uryg3e6tmb","0","71","83","60","","","","","","","","","digest","news","metaphor","experimental","f","true","",""
"null","<p style=""font-size: 50px;"">+</p>","null","html-keyboard-response","244","2.1.0","447197","F=YES, J=NO","uryg3e6tmb","0","71","83","60","","","","","","","","","","","","","","","",""
"null","audio/beep-329314.mp3","null","audio-keyboard-response","245","2.1.0","448724","F=YES, J=NO","uryg3e6tmb","0","71","83","60","","","","","","","","","","","","","","","",""
"null","audio/hawk1.wav","null","audio-keyboard-response","246","2.1.0","449293","F=YES, J=NO","uryg3e6tmb","0","71","83","60","","","","","","","","","","","","","","","",""
"651","
          <p id=""word"" style=""font-size: 40px;"">wipe</p>
          <p style=""font-size: 16px;"">F = YES &nbsp;&nbsp;&nbsp; J = NO</p>
        ","f","html-keyboard-response","247","2.1.0","449945","F=YES, J=NO","uryg3e6tmb","0","71","83","60","","","","","","","","","wipe","hawk1","unrelated","experimental","f","true","",""
"null","<p style=""font-size: 50px;"">+</p>","null","html-keyboard-response","248","2.1.0","450253","F=YES, J=NO","uryg3e6tmb","0","71","83","60","","","","","","","","","","","","","","","",""
"null","audio/beep-329314.mp3","null","audio-keyboard-response","249","2.1.0","451783","F=YES, J=NO","uryg3e6tmb","0","71","83","60","","","","","","","","","","","","","","","",""
"null","audio/pain1.wav","null","audio-keyboard-response","250","2.1.0","452213","F=YES, J=NO","uryg3e6tmb","0","71","83","60","","","","","","","","","","","","","","","",""
"1172","
          <p id=""word"" style=""font-size: 40px;"">tritted</p>
          <p style=""font-size: 16px;"">F = YES &nbsp;&nbsp;&nbsp; J = NO</p>
        ","j","html-keyboard-response","251","2.1.0","453386","F=YES, J=NO","uryg3e6tmb","0","71","83","60","","","","","","","","","tritted","pain1","pseudoword","pseudoword","j","true","",""
"null","<p style=""font-size: 50px;"">+</p>","null","html-keyboard-response","252","2.1.0","453690","F=YES, J=NO","uryg3e6tmb","0","71","83","60","","","","","","","","","","","","","","","",""
"null","audio/beep-329314.mp3","null","audio-keyboard-response","253","2.1.0","455223","F=YES, J=NO","uryg3e6tmb","0","71","83","60","","","","","","","","","","","","","","","",""
"null","audio/strength.wav","null","audio-keyboard-response","254","2.1.0","455933","F=YES, J=NO","uryg3e6tmb","0","71","83","60","","","","","","","","","","","","","","","",""
"1148","
          <p id=""word"" style=""font-size: 40px;"">possess</p>
          <p style=""font-size: 16px;"">F = YES &nbsp;&nbsp;&nbsp; J = NO</p>
        ","f","html-keyboard-response","255","2.1.0","457082","F=YES, J=NO","uryg3e6tmb","0","71","83","60","","","","","","","","","possess","strength","metaphor","experimental","f","true","",""
"null","<p style=""font-size: 50px;"">+</p>","null","html-keyboard-response","256","2.1.0","457397","F=YES, J=NO","uryg3e6tmb","0","71","83","60","","","","","","","","","","","","","","","",""
"null","audio/beep-329314.mp3","null","audio-keyboard-response","257","2.1.0","458924","F=YES, J=NO","uryg3e6tmb","0","71","83","60","","","","","","","","","","","","","","","",""
"null","audio/budget1.wav","null","audio-keyboard-response","258","2.1.0","459513","F=YES, J=NO","uryg3e6tmb","0","71","83","60","","","","","","","","","","","","","","","",""
"881","
          <p id=""word"" style=""font-size: 40px;"">sulist</p>
          <p style=""font-size: 16px;"">F = YES &nbsp;&nbsp;&nbsp; J = NO</p>
        ","j","html-keyboard-response","259","2.1.0","460394","F=YES, J=NO","uryg3e6tmb","0","71","83","60","","","","","","","","","sulist","budget1","pseudoword","pseudoword","j","true","",""
"null","<p style=""font-size: 50px;"">+</p>","null","html-keyboard-response","260","2.1.0","460701","F=YES, J=NO","uryg3e6tmb","0","71","83","60","","","","","","","","","","","","","","","",""
"null","audio/beep-329314.mp3","null","audio-keyboard-response","261","2.1.0","462223","F=YES, J=NO","uryg3e6tmb","0","71","83","60","","","","","","","","","","","","","","","",""
"null","audio/prisoner.wav","null","audio-keyboard-response","262","2.1.0","462773","F=YES, J=NO","uryg3e6tmb","0","71","83","60","","","","","","","","","","","","","","","",""
"941","
          <p id=""word"" style=""font-size: 40px;"">egotian</p>
          <p style=""font-size: 16px;"">F = YES &nbsp;&nbsp;&nbsp; J = NO</p>
        ","j","html-keyboard-response","263","2.1.0","463715","F=YES, J=NO","uryg3e6tmb","0","71","83","60","","","","","","","","","egotian","prisoner","pseudoword","pseudoword","j","true","",""
"null","<p style=""font-size: 50px;"">+</p>","null","html-keyboard-response","264","2.1.0","464028","F=YES, J=NO","uryg3e6tmb","0","71","83","60","","","","","","","","","","","","","","","",""
"null","audio/beep-329314.mp3","null","audio-keyboard-response","265","2.1.0","465563","F=YES, J=NO","uryg3e6tmb","0","71","83","60","","","","","","","","","","","","","","","",""
"null","audio/sand.wav","null","audio-keyboard-response","266","2.1.0","466253","F=YES, J=NO","uryg3e6tmb","0","71","83","60","","","","","","","","","","","","","","","",""
"797","
          <p id=""word"" style=""font-size: 40px;"">proted</p>
          <p style=""font-size: 16px;"">F = YES &nbsp;&nbsp;&nbsp; J = NO</p>
        ","j","html-keyboard-response","267","2.1.0","467051","F=YES, J=NO","uryg3e6tmb","0","71","83","60","","","","","","","","","proted","sand","pseudoword","pseudoword","j","true","",""
"null","<p style=""font-size: 50px;"">+</p>","null","html-keyboard-response","268","2.1.0","467363","F=YES, J=NO","uryg3e6tmb","0","71","83","60","","","","","","","","","","","","","","","",""
"null","audio/beep-329314.mp3","null","audio-keyboard-response","269","2.1.0","468903","F=YES, J=NO","uryg3e6tmb","0","71","83","60","","","","","","","","","","","","","","","",""
"null","audio/mood1.wav","null","audio-keyboard-response","270","2.1.0","469413","F=YES, J=NO","uryg3e6tmb","0","71","83","60","","","","","","","","","","","","","","","",""
"566","
          <p id=""word"" style=""font-size: 40px;"">give</p>
          <p style=""font-size: 16px;"">F = YES &nbsp;&nbsp;&nbsp; J = NO</p>
        ","f","html-keyboard-response","271","2.1.0","469979","F=YES, J=NO","uryg3e6tmb","0","71","83","60","","","","","","","","","give","mood1","unrelated","experimental","f","true","",""
"null","<p style=""font-size: 50px;"">+</p>","null","html-keyboard-response","272","2.1.0","470289","F=YES, J=NO","uryg3e6tmb","0","71","83","60","","","","","","","","","","","","","","","",""
"null","audio/beep-329314.mp3","null","audio-keyboard-response","273","2.1.0","471823","F=YES, J=NO","uryg3e6tmb","0","71","83","60","","","","","","","","","","","","","","","",""
"null","audio/trout1.wav","null","audio-keyboard-response","274","2.1.0","472453","F=YES, J=NO","uryg3e6tmb","0","71","83","60","","","","","","","","","","","","","","","",""
"566","
          <p id=""word"" style=""font-size: 40px;"">spimt</p>
          <p style=""font-size: 16px;"">F = YES &nbsp;&nbsp;&nbsp; J = NO</p>
        ","j","html-keyboard-response","275","2.1.0","473020","F=YES, J=NO","uryg3e6tmb","0","71","83","60","","","","","","","","","spimt","trout1","pseudoword","pseudoword","j","true","",""
"null","<p style=""font-size: 50px;"">+</p>","null","html-keyboard-response","276","2.1.0","473323","F=YES, J=NO","uryg3e6tmb","0","71","83","60","","","","","","","","","","","","","","","",""
"null","audio/beep-329314.mp3","null","audio-keyboard-response","277","2.1.0","474863","F=YES, J=NO","uryg3e6tmb","0","71","83","60","","","","","","","","","","","","","","","",""
"null","audio/pine.wav","null","audio-keyboard-response","278","2.1.0","475393","F=YES, J=NO","uryg3e6tmb","0","71","83","60","","","","","","","","","","","","","","","",""
"755","
          <p id=""word"" style=""font-size: 40px;"">crebble</p>
          <p style=""font-size: 16px;"">F = YES &nbsp;&nbsp;&nbsp; J = NO</p>
        ","j","html-keyboard-response","279","2.1.0","476148","F=YES, J=NO","uryg3e6tmb","0","71","83","60","","","","","","","","","crebble","pine","pseudoword","pseudoword","j","true","",""
"null","<p style=""font-size: 50px;"">+</p>","null","html-keyboard-response","280","2.1.0","476454","F=YES, J=NO","uryg3e6tmb","0","71","83","60","","","","","","","","","","","","","","","",""
"null","audio/beep-329314.mp3","null","audio-keyboard-response","281","2.1.0","477983","F=YES, J=NO","uryg3e6tmb","0","71","83","60","","","","","","","","","","","","","","","",""
"null","audio/fox.wav","null","audio-keyboard-response","282","2.1.0","478813","F=YES, J=NO","uryg3e6tmb","0","71","83","60","","","","","","","","","","","","","","","",""
"799","
          <p id=""word"" style=""font-size: 40px;"">conquer</p>
          <p style=""font-size: 16px;"">F = YES &nbsp;&nbsp;&nbsp; J = NO</p>
        ","f","html-keyboard-response","283","2.1.0","479612","F=YES, J=NO","uryg3e6tmb","0","71","83","60","","","","","","","","","conquer","fox","unrelated","experimental","f","true","",""
"null","<p style=""font-size: 50px;"">+</p>","null","html-keyboard-response","284","2.1.0","479922","F=YES, J=NO","uryg3e6tmb","0","71","83","60","","","","","","","","","","","","","","","",""
"null","audio/beep-329314.mp3","null","audio-keyboard-response","285","2.1.0","481443","F=YES, J=NO","uryg3e6tmb","0","71","83","60","","","","","","","","","","","","","","","",""
"null","audio/holiday1.wav","null","audio-keyboard-response","286","2.1.0","482053","F=YES, J=NO","uryg3e6tmb","0","71","83","60","","","","","","","","","","","","","","","",""
"783","
          <p id=""word"" style=""font-size: 40px;"">spend</p>
          <p style=""font-size: 16px;"">F = YES &nbsp;&nbsp;&nbsp; J = NO</p>
        ","f","html-keyboard-response","287","2.1.0","482837","F=YES, J=NO","uryg3e6tmb","0","71","83","60","","","","","","","","","spend","holiday1","metaphor","experimental","f","true","",""
"null","<p style=""font-size: 50px;"">+</p>","null","html-keyboard-response","288","2.1.0","483146","F=YES, J=NO","uryg3e6tmb","0","71","83","60","","","","","","","","","","","","","","","",""
"null","audio/beep-329314.mp3","null","audio-keyboard-response","289","2.1.0","484683","F=YES, J=NO","uryg3e6tmb","0","71","83","60","","","","","","","","","","","","","","","",""
"null","audio/breath.wav","null","audio-keyboard-response","290","2.1.0","485313","F=YES, J=NO","uryg3e6tmb","0","71","83","60","","","","","","","","","","","","","","","",""
"700","
          <p id=""word"" style=""font-size: 40px;"">construct</p>
          <p style=""font-size: 16px;"">F = YES &nbsp;&nbsp;&nbsp; J = NO</p>
        ","f","html-keyboard-response","291","2.1.0","486013","F=YES, J=NO","uryg3e6tmb","0","71","83","60","","","","","","","","","construct","breath","unrelated","experimental","f","true","",""
"null","<p style=""font-size: 50px;"">+</p>","null","html-keyboard-response","292","2.1.0","486323","F=YES, J=NO","uryg3e6tmb","0","71","83","60","","","","","","","","","","","","","","","",""
"null","audio/beep-329314.mp3","null","audio-keyboard-response","293","2.1.0","487863","F=YES, J=NO","uryg3e6tmb","0","71","83","60","","","","","","","","","","","","","","","",""
"null","audio/meal.wav","null","audio-keyboard-response","294","2.1.0","488353","F=YES, J=NO","uryg3e6tmb","0","71","83","60","","","","","","","","","","","","","","","",""
"820","
          <p id=""word"" style=""font-size: 40px;"">gallite</p>
          <p style=""font-size: 16px;"">F = YES &nbsp;&nbsp;&nbsp; J = NO</p>
        ","j","html-keyboard-response","295","2.1.0","489173","F=YES, J=NO","uryg3e6tmb","0","71","83","60","","","","","","","","","gallite","meal","pseudoword","pseudoword","j","true","",""
"1184","<p>Excellent! You have finished block 2 of 8.</p>
                     <p>Feel free to take a 30 second break.</p>
                     <p>Press any key when you're ready to continue.</p>"," ","html-keyboard-response","296","2.1.0","490358","F=YES, J=NO","uryg3e6tmb","0","71","83","60","","","","","","","","","","","","","","","",""
"1320","<p>Starting main block 3 of 8. Press any key to continue.</p>"," ","html-keyboard-response","297","2.1.0","491678","F=YES, J=NO","uryg3e6tmb","0","71","83","60","","","","","","","","","","","","","","","",""
"null","<p style=""font-size: 50px;"">+</p>","null","html-keyboard-response","298","2.1.0","491978","F=YES, J=NO","uryg3e6tmb","0","71","83","60","","","","","","","","","","","","","","","",""
"null","audio/beep-329314.mp3","null","audio-keyboard-response","299","2.1.0","493503","F=YES, J=NO","uryg3e6tmb","0","71","83","60","","","","","","","","","","","","","","","",""
"null","audio/smirk1.wav","null","audio-keyboard-response","300","2.1.0","494273","F=YES, J=NO","uryg3e6tmb","0","71","83","60","","","","","","","","","","","","","","","",""
"581","
          <p id=""word"" style=""font-size: 40px;"">snopt</p>
          <p style=""font-size: 16px;"">F = YES &nbsp;&nbsp;&nbsp; J = NO</p>
        ","j","html-keyboard-response","301","2.1.0","494854","F=YES, J=NO","uryg3e6tmb","0","71","83","60","","","","","","","","","snopt","smirk1","pseudoword","pseudoword","j","true","",""
"null","<p style=""font-size: 50px;"">+</p>","null","html-keyboard-response","302","2.1.0","495158","F=YES, J=NO","uryg3e6tmb","0","71","83","60","","","","","","","","","","","","","","","",""
"null","audio/beep-329314.mp3","null","audio-keyboard-response","303","2.1.0","496683","F=YES, J=NO","uryg3e6tmb","0","71","83","60","","","","","","","","","","","","","","","",""
"null","audio/window1.wav","null","audio-keyboard-response","304","2.1.0","497353","F=YES, J=NO","uryg3e6tmb","0","71","83","60","","","","","","","","","","","","","","","",""
"581","
          <p id=""word"" style=""font-size: 40px;"">break</p>
          <p style=""font-size: 16px;"">F = YES &nbsp;&nbsp;&nbsp; J = NO</p>
        ","f","html-keyboard-response","305","2.1.0","497934","F=YES, J=NO","uryg3e6tmb","0","71","83","60","","","","","","","","","break","window1","literal","experimental","f","true","",""
"null","<p style=""font-size: 50px;"">+</p>","null","html-keyboard-response","306","2.1.0","498239","F=YES, J=NO","uryg3e6tmb","0","71","83","60","","","","","","","","","","","","","","","",""
"null","audio/beep-329314.mp3","null","audio-keyboard-response","307","2.1.0","499763","F=YES, J=NO","uryg3e6tmb","0","71","83","60","","","","","","","","","","","","","","","",""
"null","audio/pig.wav","null","audio-keyboard-response","308","2.1.0","500133","F=YES, J=NO","uryg3e6tmb","0","71","83","60","","","","","","","","","","","","","","","",""
"785","
          <p id=""word"" style=""font-size: 40px;"">tirlike</p>
          <p style=""font-size: 16px;"">F = YES &nbsp;&nbsp;&nbsp; J = NO</p>
        ","j","html-keyboard-response","309","2.1.0","500919","F=YES, J=NO","uryg3e6tmb","0","71","83","60","","","","","","","","","tirlike","pig","pseudoword","pseudoword","j","true","",""
"null","<p style=""font-size: 50px;"">+</p>","null","html-keyboard-response","310","2.1.0","501230","F=YES, J=NO","uryg3e6tmb","0","71","83","60","","","","","","","","","","","","","","","",""
"null","audio/beep-329314.mp3","null","audio-keyboard-response","311","2.1.0","502763","F=YES, J=NO","uryg3e6tmb","0","71","83","60","","","","","","","","","","","","","","","",""
"null","audio/hotel1.wav","null","audio-keyboard-response","312","2.1.0","503433","F=YES, J=NO","uryg3e6tmb","0","71","83","60","","","","","","","","","","","","","","","",""
"589","
          <p id=""word"" style=""font-size: 40px;"">spread</p>
          <p style=""font-size: 16px;"">F = YES &nbsp;&nbsp;&nbsp; J = NO</p>
        ","f","html-keyboard-response","313","2.1.0","504023","F=YES, J=NO","uryg3e6tmb","0","71","83","60","","","","","","","","","spread","hotel1","unrelated","experimental","f","true","",""
"null","<p style=""font-size: 50px;"">+</p>","null","html-keyboard-response","314","2.1.0","504332","F=YES, J=NO","uryg3e6tmb","0","71","83","60","","","","","","","","","","","","","","","",""
"null","audio/beep-329314.mp3","null","audio-keyboard-response","315","2.1.0","505863","F=YES, J=NO","uryg3e6tmb","0","71","83","60","","","","","","","","","","","","","","","",""
"null","audio/brain.wav","null","audio-keyboard-response","316","2.1.0","506393","F=YES, J=NO","uryg3e6tmb","0","71","83","60","","","","","","","","","","","","","","","",""
"590","
          <p id=""word"" style=""font-size: 40px;"">throw</p>
          <p style=""font-size: 16px;"">F = YES &nbsp;&nbsp;&nbsp; J = NO</p>
        ","f","html-keyboard-response","317","2.1.0","506984","F=YES, J=NO","uryg3e6tmb","0","71","83","60","","","","","","","","","throw","brain","filler","filler","f","true","",""
"null","<p style=""font-size: 50px;"">+</p>","null","html-keyboard-response","318","2.1.0","507290","F=YES, J=NO","uryg3e6tmb","0","71","83","60","","","","","","","","","","","","","","","",""
"null","audio/beep-329314.mp3","null","audio-keyboard-response","319","2.1.0","508823","F=YES, J=NO","uryg3e6tmb","0","71","83","60","","","","","","","","","","","","","","","",""
"null","audio/van1.wav","null","audio-keyboard-response","320","2.1.0","509293","F=YES, J=NO","uryg3e6tmb","0","71","83","60","","","","","","","","","","","","","","","",""
"762","
          <p id=""word"" style=""font-size: 40px;"">support</p>
          <p style=""font-size: 16px;"">F = YES &nbsp;&nbsp;&nbsp; J = NO</p>
        ","f","html-keyboard-response","321","2.1.0","510056","F=YES, J=NO","uryg3e6tmb","0","71","83","60","","","","","","","","","support","van1","unrelated","experimental","f","true","",""
"null","<p style=""font-size: 50px;"">+</p>","null","html-keyboard-response","322","2.1.0","510366","F=YES, J=NO","uryg3e6tmb","0","71","83","60","","","","","","","","","","","","","","","",""
"null","audio/beep-329314.mp3","null","audio-keyboard-response","323","2.1.0","511903","F=YES, J=NO","uryg3e6tmb","0","71","83","60","","","","","","","","","","","","","","","",""
"null","audio/noise1.wav","null","audio-keyboard-response","324","2.1.0","512553","F=YES, J=NO","uryg3e6tmb","0","71","83","60","","","","","","","","","","","","","","","",""
"838","
          <p id=""word"" style=""font-size: 40px;"">slintered</p>
          <p style=""font-size: 16px;"">F = YES &nbsp;&nbsp;&nbsp; J = NO</p>
        ","f","html-keyboard-response","325","2.1.0","513392","F=YES, J=NO","uryg3e6tmb","0","71","83","60","","","","","","","","","slintered","noise1","pseudoword","pseudoword","j","false","",""
"null","<p style=""font-size: 50px;"">+</p>","null","html-keyboard-response","326","2.1.0","513698","F=YES, J=NO","uryg3e6tmb","0","71","83","60","","","","","","","","","","","","","","","",""
"null","audio/beep-329314.mp3","null","audio-keyboard-response","327","2.1.0","515223","F=YES, J=NO","uryg3e6tmb","0","71","83","60","","","","","","","","","","","","","","","",""
"null","audio/foot1.wav","null","audio-keyboard-response","328","2.1.0","515813","F=YES, J=NO","uryg3e6tmb","0","71","83","60","","","","","","","","","","","","","","","",""
"699","
          <p id=""word"" style=""font-size: 40px;"">thrutt</p>
          <p style=""font-size: 16px;"">F = YES &nbsp;&nbsp;&nbsp; J = NO</p>
        ","j","html-keyboard-response","329","2.1.0","516512","F=YES, J=NO","uryg3e6tmb","0","71","83","60","","","","","","","","","thrutt","foot1","pseudoword","pseudoword","j","true","",""
"null","<p style=""font-size: 50px;"">+</p>","null","html-keyboard-response","330","2.1.0","516821","F=YES, J=NO","uryg3e6tmb","0","71","83","60","","","","","","","","","","","","","","","",""
"null","audio/beep-329314.mp3","null","audio-keyboard-response","331","2.1.0","518343","F=YES, J=NO","uryg3e6tmb","0","71","83","60","","","","","","","","","","","","","","","",""
"null","audio/weapon.wav","null","audio-keyboard-response","332","2.1.0","518973","F=YES, J=NO","uryg3e6tmb","0","71","83","60","","","","","","","","","","","","","","","",""
"571","
          <p id=""word"" style=""font-size: 40px;"">carry</p>
          <p style=""font-size: 16px;"">F = YES &nbsp;&nbsp;&nbsp; J = NO</p>
        ","f","html-keyboard-response","333","2.1.0","519545","F=YES, J=NO","uryg3e6tmb","0","71","83","60","","","","","","","","","carry","weapon","literal","experimental","f","true","",""
"null","<p style=""font-size: 50px;"">+</p>","null","html-keyboard-response","334","2.1.0","519847","F=YES, J=NO","uryg3e6tmb","0","71","83","60","","","","","","","","","","","","","","","",""
"null","audio/beep-329314.mp3","null","audio-keyboard-response","335","2.1.0","521383","F=YES, J=NO","uryg3e6tmb","0","71","83","60","","","","","","","","","","","","","","","",""
"null","audio/size1.wav","null","audio-keyboard-response","336","2.1.0","522173","F=YES, J=NO","uryg3e6tmb","0","71","83","60","","","","","","","","","","","","","","","",""
"643","
          <p id=""word"" style=""font-size: 40px;"">clear</p>
          <p style=""font-size: 16px;"">F = YES &nbsp;&nbsp;&nbsp; J = NO</p>
        ","f","html-keyboard-response","337","2.1.0","522817","F=YES, J=NO","uryg3e6tmb","0","71","83","60","","","","","","","","","clear","size1","unrelated","experimental","f","true","",""
"null","<p style=""font-size: 50px;"">+</p>","null","html-keyboard-response","338","2.1.0","523128","F=YES, J=NO","uryg3e6tmb","0","71","83","60","","","","","","","","","","","","","","","",""
"null","audio/beep-329314.mp3","null","audio-keyboard-response","339","2.1.0","524663","F=YES, J=NO","uryg3e6tmb","0","71","83","60","","","","","","","","","","","","","","","",""
"null","audio/mouth1.wav","null","audio-keyboard-response","340","2.1.0","525373","F=YES, J=NO","uryg3e6tmb","0","71","83","60","","","","","","","","","","","","","","","",""
"660","
          <p id=""word"" style=""font-size: 40px;"">spolial</p>
          <p style=""font-size: 16px;"">F = YES &nbsp;&nbsp;&nbsp; J = NO</p>
        ","j","html-keyboard-response","341","2.1.0","526033","F=YES, J=NO","uryg3e6tmb","0","71","83","60","","","","","","","","","spolial","mouth1","pseudoword","pseudoword","j","true","",""
"null","<p style=""font-size: 50px;"">+</p>","null","html-keyboard-response","342","2.1.0","526348","F=YES, J=NO","uryg3e6tmb","0","71","83","60","","","","","","","","","","","","","","","",""
"null","audio/beep-329314.mp3","null","audio-keyboard-response","343","2.1.0","527883","F=YES, J=NO","uryg3e6tmb","0","71","83","60","","","","","","","","","","","","","","","",""
"null","audio/meal.wav","null","audio-keyboard-response","344","2.1.0","528313","F=YES, J=NO","uryg3e6tmb","0","71","83","60","","","","","","","","","","","","","","","",""
"536","
          <p id=""word"" style=""font-size: 40px;"">share</p>
          <p style=""font-size: 16px;"">F = YES &nbsp;&nbsp;&nbsp; J = NO</p>
        ","f","html-keyboard-response","345","2.1.0","528850","F=YES, J=NO","uryg3e6tmb","0","71","83","60","","","","","","","","","share","meal","literal","experimental","f","true","",""
"null","<p style=""font-size: 50px;"">+</p>","null","html-keyboard-response","346","2.1.0","529155","F=YES, J=NO","uryg3e6tmb","0","71","83","60","","","","","","","","","","","","","","","",""
"null","audio/beep-329314.mp3","null","audio-keyboard-response","347","2.1.0","530684","F=YES, J=NO","uryg3e6tmb","0","71","83","60","","","","","","","","","","","","","","","",""
"null","audio/baby.wav","null","audio-keyboard-response","348","2.1.0","531193","F=YES, J=NO","uryg3e6tmb","0","71","83","60","","","","","","","","","","","","","","","",""
"633","
          <p id=""word"" style=""font-size: 40px;"">lift</p>
          <p style=""font-size: 16px;"">F = YES &nbsp;&nbsp;&nbsp; J = NO</p>
        ","f","html-keyboard-response","349","2.1.0","531826","F=YES, J=NO","uryg3e6tmb","0","71","83","60","","","","","","","","","lift","baby","filler","filler","f","true","",""
"null","<p style=""font-size: 50px;"">+</p>","null","html-keyboard-response","350","2.1.0","532135","F=YES, J=NO","uryg3e6tmb","0","71","83","60","","","","","","","","","","","","","","","",""
"null","audio/beep-329314.mp3","null","audio-keyboard-response","351","2.1.0","533663","F=YES, J=NO","uryg3e6tmb","0","71","83","60","","","","","","","","","","","","","","","",""
"null","audio/topic.wav","null","audio-keyboard-response","352","2.1.0","534273","F=YES, J=NO","uryg3e6tmb","0","71","83","60","","","","","","","","","","","","","","","",""
"609","
          <p id=""word"" style=""font-size: 40px;"">approach</p>
          <p style=""font-size: 16px;"">F = YES &nbsp;&nbsp;&nbsp; J = NO</p>
        ","f","html-keyboard-response","353","2.1.0","534882","F=YES, J=NO","uryg3e6tmb","0","71","83","60","","","","","","","","","approach","topic","metaphor","experimental","f","true","",""
"null","<p style=""font-size: 50px;"">+</p>","null","html-keyboard-response","354","2.1.0","535186","F=YES, J=NO","uryg3e6tmb","0","71","83","60","","","","","","","","","","","","","","","",""
"null","audio/beep-329314.mp3","null","audio-keyboard-response","355","2.1.0","536723","F=YES, J=NO","uryg3e6tmb","0","71","83","60","","","","","","","","","","","","","","","",""
"null","audio/demon1.wav","null","audio-keyboard-response","356","2.1.0","537273","F=YES, J=NO","uryg3e6tmb","0","71","83","60","","","","","","","","","","","","","","","",""
"625","
          <p id=""word"" style=""font-size: 40px;"">wrestle</p>
          <p style=""font-size: 16px;"">F = YES &nbsp;&nbsp;&nbsp; J = NO</p>
        ","f","html-keyboard-response","357","2.1.0","537899","F=YES, J=NO","uryg3e6tmb","0","71","83","60","","","","","","","","","wrestle","demon1","metaphor","experimental","f","true","",""
"null","<p style=""font-size: 50px;"">+</p>","null","html-keyboard-response","358","2.1.0","538204","F=YES, J=NO","uryg3e6tmb","0","71","83","60","","","","","","","","","","","","","","","",""
"null","audio/beep-329314.mp3","null","audio-keyboard-response","359","2.1.0","539743","F=YES, J=NO","uryg3e6tmb","0","71","83","60","","","","","","","","","","","","","","","",""
"null","audio/age1.wav","null","audio-keyboard-response","360","2.1.0","540273","F=YES, J=NO","uryg3e6tmb","0","71","83","60","","","","","","","","","","","","","","","",""
"690","
          <p id=""word"" style=""font-size: 40px;"">seize</p>
          <p style=""font-size: 16px;"">F = YES &nbsp;&nbsp;&nbsp; J = NO</p>
        ","f","html-keyboard-response","361","2.1.0","540963","F=YES, J=NO","uryg3e6tmb","0","71","83","60","","","","","","","","","seize","age1","unrelated","experimental","f","true","",""
"976","<p>Excellent! You have finished block 3 of 8.</p>
                     <p>Feel free to take a 30 second break.</p>
                     <p>Press any key when you're ready to continue.</p>"," ","html-keyboard-response","362","2.1.0","541939","F=YES, J=NO","uryg3e6tmb","0","71","83","60","","","","","","","","","","","","","","","",""
"399","<p>Starting main block 4 of 8. Press any key to continue.</p>"," ","html-keyboard-response","363","2.1.0","542339","F=YES, J=NO","uryg3e6tmb","0","71","83","60","","","","","","","","","","","","","","","",""
"null","<p style=""font-size: 50px;"">+</p>","null","html-keyboard-response","364","2.1.0","542649","F=YES, J=NO","uryg3e6tmb","0","71","83","60","","","","","","","","","","","","","","","",""
"null","audio/beep-329314.mp3","null","audio-keyboard-response","365","2.1.0","544183","F=YES, J=NO","uryg3e6tmb","0","71","83","60","","","","","","","","","","","","","","","",""
"null","audio/hotel1.wav","null","audio-keyboard-response","366","2.1.0","544793","F=YES, J=NO","uryg3e6tmb","0","71","83","60","","","","","","","","","","","","","","","",""
"970","
          <p id=""word"" style=""font-size: 40px;"">flanter</p>
          <p style=""font-size: 16px;"">F = YES &nbsp;&nbsp;&nbsp; J = NO</p>
        ","j","html-keyboard-response","367","2.1.0","545764","F=YES, J=NO","uryg3e6tmb","0","71","83","60","","","","","","","","","flanter","hotel1","pseudoword","pseudoword","j","true","",""
"null","<p style=""font-size: 50px;"">+</p>","null","html-keyboard-response","368","2.1.0","546077","F=YES, J=NO","uryg3e6tmb","0","71","83","60","","","","","","","","","","","","","","","",""
"null","audio/beep-329314.mp3","null","audio-keyboard-response","369","2.1.0","547604","F=YES, J=NO","uryg3e6tmb","0","71","83","60","","","","","","","","","","","","","","","",""
"null","audio/novel.wav","null","audio-keyboard-response","370","2.1.0","548153","F=YES, J=NO","uryg3e6tmb","0","71","83","60","","","","","","","","","","","","","","","",""
"466","
          <p id=""word"" style=""font-size: 40px;"">type</p>
          <p style=""font-size: 16px;"">F = YES &nbsp;&nbsp;&nbsp; J = NO</p>
        ","f","html-keyboard-response","371","2.1.0","548620","F=YES, J=NO","uryg3e6tmb","0","71","83","60","","","","","","","","","type","novel","filler","filler","f","true","",""
"null","<p style=""font-size: 50px;"">+</p>","null","html-keyboard-response","372","2.1.0","548931","F=YES, J=NO","uryg3e6tmb","0","71","83","60","","","","","","","","","","","","","","","",""
"null","audio/beep-329314.mp3","null","audio-keyboard-response","373","2.1.0","550463","F=YES, J=NO","uryg3e6tmb","0","71","83","60","","","","","","","","","","","","","","","",""
"null","audio/heart1.wav","null","audio-keyboard-response","374","2.1.0","551133","F=YES, J=NO","uryg3e6tmb","0","71","83","60","","","","","","","","","","","","","","","",""
"679","
          <p id=""word"" style=""font-size: 40px;"">dralm</p>
          <p style=""font-size: 16px;"">F = YES &nbsp;&nbsp;&nbsp; J = NO</p>
        ","j","html-keyboard-response","375","2.1.0","551812","F=YES, J=NO","uryg3e6tmb","0","71","83","60","","","","","","","","","dralm","heart1","pseudoword","pseudoword","j","true","",""
"null","<p style=""font-size: 50px;"">+</p>","null","html-keyboard-response","376","2.1.0","552114","F=YES, J=NO","uryg3e6tmb","0","71","83","60","","","","","","","","","","","","","","","",""
"null","audio/beep-329314.mp3","null","audio-keyboard-response","377","2.1.0","553643","F=YES, J=NO","uryg3e6tmb","0","71","83","60","","","","","","","","","","","","","","","",""
"null","audio/bush1.wav","null","audio-keyboard-response","378","2.1.0","554273","F=YES, J=NO","uryg3e6tmb","0","71","83","60","","","","","","","","","","","","","","","",""
"1251","
          <p id=""word"" style=""font-size: 40px;"">platined</p>
          <p style=""font-size: 16px;"">F = YES &nbsp;&nbsp;&nbsp; J = NO</p>
        ","j","html-keyboard-response","379","2.1.0","555525","F=YES, J=NO","uryg3e6tmb","0","71","83","60","","","","","","","","","platined","bush1","pseudoword","pseudoword","j","true","",""
"null","<p style=""font-size: 50px;"">+</p>","null","html-keyboard-response","380","2.1.0","555839","F=YES, J=NO","uryg3e6tmb","0","71","83","60","","","","","","","","","","","","","","","",""
"null","audio/beep-329314.mp3","null","audio-keyboard-response","381","2.1.0","557363","F=YES, J=NO","uryg3e6tmb","0","71","83","60","","","","","","","","","","","","","","","",""
"null","audio/scar.wav","null","audio-keyboard-response","382","2.1.0","557993","F=YES, J=NO","uryg3e6tmb","0","71","83","60","","","","","","","","","","","","","","","",""
"891","
          <p id=""word"" style=""font-size: 40px;"">adelineate</p>
          <p style=""font-size: 16px;"">F = YES &nbsp;&nbsp;&nbsp; J = NO</p>
        ","j","html-keyboard-response","383","2.1.0","558885","F=YES, J=NO","uryg3e6tmb","0","71","83","60","","","","","","","","","adelineate","scar","pseudoword","pseudoword","j","true","",""
"null","<p style=""font-size: 50px;"">+</p>","null","html-keyboard-response","384","2.1.0","559199","F=YES, J=NO","uryg3e6tmb","0","71","83","60","","","","","","","","","","","","","","","",""
"null","audio/beep-329314.mp3","null","audio-keyboard-response","385","2.1.0","560723","F=YES, J=NO","uryg3e6tmb","0","71","83","60","","","","","","","","","","","","","","","",""
"null","audio/cloud1.wav","null","audio-keyboard-response","386","2.1.0","561433","F=YES, J=NO","uryg3e6tmb","0","71","83","60","","","","","","","","","","","","","","","",""
"820","
          <p id=""word"" style=""font-size: 40px;"">brotant</p>
          <p style=""font-size: 16px;"">F = YES &nbsp;&nbsp;&nbsp; J = NO</p>
        ","j","html-keyboard-response","387","2.1.0","562253","F=YES, J=NO","uryg3e6tmb","0","71","83","60","","","","","","","","","brotant","cloud1","pseudoword","pseudoword","j","true","",""
"null","<p style=""font-size: 50px;"">+</p>","null","html-keyboard-response","388","2.1.0","562557","F=YES, J=NO","uryg3e6tmb","0","71","83","60","","","","","","","","","","","","","","","",""
"null","audio/beep-329314.mp3","null","audio-keyboard-response","389","2.1.0","564083","F=YES, J=NO","uryg3e6tmb","0","71","83","60","","","","","","","","","","","","","","","",""
"null","audio/breath.wav","null","audio-keyboard-response","390","2.1.0","564633","F=YES, J=NO","uryg3e6tmb","0","71","83","60","","","","","","","","","","","","","","","",""
"652","
          <p id=""word"" style=""font-size: 40px;"">twets</p>
          <p style=""font-size: 16px;"">F = YES &nbsp;&nbsp;&nbsp; J = NO</p>
