"rt","stimulus","response","trial_type","trial_index","plugin_version","time_elapsed","response_mapping","subject_id","list_index","lextale_score","lextale_word_score","lextale_nonword_score","success","timeout","failed_images","failed_audio","failed_video","task","isWord","isDummy","target","prime","prime_type","stimulus_type","correct_response","correct","section","question_order"
"72518","
    <div style=""max-width: 800px; margin: auto; text-align: left;"">
      <h2>STANFORD UNIVERSITY</h2>
      <h3>Research Information Sheet</h3>
      <p><strong>Protocol Director:</strong> Robert Hawkins<br>
      <strong>Protocol Title:</strong> Communication and social cognition in natural audiovisual contexts<br>
      <strong>IRB#:</strong> 77226</p>

      <p><strong>DESCRIPTION:</strong> You are invited to participate in a research study about language and communication. The purpose of the research is to understand how you interact and communicate with other people in naturalistic settings as a fluent English speaker. This research will be conducted through the Prolific platform, including participants from the US, UK, and Canada. If you decide to participate in this research, you will play a communication game in a group with one or more partners.</p>

      <p><strong>TIME INVOLVEMENT:</strong> The task will last the amount of time advertised on Prolific. You are free to withdraw from the study at any time.</p>

      <p><strong>RISKS AND BENEFITS:</strong> You may become frustrated if your partner gets distracted, or experience discomfort if other participants in your group send text that is inappropriate for the task. We ask you to please be respectful of other participants you might be interacting with to mitigate these risks. You may also experience discomfort when being asked to discuss or challenge emotionally salient political beliefs. Study data will be stored securely, in compliance with Stanford University standards, minimizing the risk of confidentiality breach. This study advances our scientific understanding of how people communicate and collaborate in naturalistic settings. This study may lead to further insights about what can go wrong in teamwork, suggest potential interventions to overcome these barriers, and help to develop assistive technologies that collaborate with human partners. We cannot and do not guarantee or promise that you will receive any benefits from this study.</p>

      <p><strong>PAYMENTS:</strong> You will receive payment in the amount advertised on Prolific. If you do not complete this study, you will receive prorated payment based on the time that you have spent. Additionally, you may be eligible for bonus payments as described in the instructions.</p>

      <p><strong>PARTICIPANT’S RIGHTS:</strong> If you have read this form and have decided to participate in this project, please understand your participation is voluntary and you have the right to withdraw your consent or discontinue participation at any time without penalty or loss of benefits to which you are otherwise entitled. The alternative is not to participate. You have the right to refuse to answer particular questions. The results of this research study may be presented at scientific or professional meetings or published in scientific journals. Your individual privacy will be maintained in all published and written data resulting from the study. In accordance with scientific norms, the data from this study may be used or shared with other researchers for future research (after removing personally identifying information) without additional consent from you.</p>

      <p><strong>CONTACT INFORMATION:</strong><br>
      Questions: If you have any questions, concerns or complaints about this research, its procedures, risks and benefits, contact the Protocol Director, Robert Hawkins (<a href=""mailto:rdhawkins@stanford.edu"">rdhawkins@stanford.edu</a>, 217-549-6923).<br>
      Independent Contact: If you are not satisfied with how this study is being conducted, or if you have any concerns, complaints, or general questions about the research or your rights as a participant, please contact the Stanford Institutional Review Board (IRB) to speak to someone independent of the research team at 650-723-2480 or toll free at 1-866-680-2906, or email at <a href=""mailto:irbnon-med@stanford.edu"">irbnon-med@stanford.edu</a>. You can also write to the Stanford IRB, Stanford University, 1705 El Camino Real, Palo Alto, CA 94306.</p>

      <p><strong>Please save or print a copy of this page for your records.</strong></p>
      <p>If you agree to participate in this research, click ""Continue"" below.</p>
    </div>
  ","0","html-button-response","0","2.1.0","72518","J=YES, F=NO","vjt5pkesp7","2","66","78","55","","","","","","","","","","","","","","","",""
"12967","
    <div style=""max-width: 800px; margin: auto; text-align: left;"">
      <h2>Welcome!</h2>
      <p>Thank you for participating in this study. The experiment consists of three parts:</p>
      <ol>
        <li>An English vocabulary test</li>
        <li>A main task in which you will hear and see words, and decide whether the written word is a real English word</li>
        <li>A brief survey about your background</li>
      </ol>
      <p>Each part will be introduced before it begins.</p>
      <p>Please make sure you are in a quiet environment and can hear audio clearly for the final task.</p>
      <p style=""margin-top: 2em;"">Press any key to begin.</p>
    </div>
  "," ","html-keyboard-response","1","2.1.0","85485","J=YES, F=NO","vjt5pkesp7","2","66","78","55","","","","","","","","","","","","","","","",""
"","","","preload","2","2.1.0","85969","J=YES, F=NO","vjt5pkesp7","2","66","78","55","true","false","[]","[]","[]","","","","","","","","","","",""
"6567","
    <div style=""max-width: 800px; margin: auto; text-align: left;"">
      <h2>Part 1: Vocabulary Test</h2>
      <p>You will now complete the first part of the study: a short English vocabulary test.</p>
      <p>This test is called <strong>LexTALE</strong> and helps us get a general sense of your English proficiency.</p>
      <p style=""margin-top: 2em;"">Press any key to continue.</p>
    </div>
  "," ","html-keyboard-response","3","2.1.0","92519","J=YES, F=NO","vjt5pkesp7","2","66","78","55","","","","","","","","","","","","","","","",""
"11800","
    <div style=""max-width: 800px; margin: auto; text-align: left;"">
      <h2>LexTALE Vocabulary Test</h2>
      <p>In this test, you will see a series of letter strings—one at a time.</p>
      <p>Your task is to decide whether each string is a real English word.</p>
      <p><strong>Key responses:</strong></p>
      <ul>
        <li><strong>J</strong> = YES (real English word)</li>
        <li><strong>F</strong> = NO (not a real English word)</li>
      </ul>
      <p>There is no time limit, but please try to be accurate.</p>
      <p style=""margin-top: 2em;"">Press any key to begin.</p>
    </div>
  "," ","html-keyboard-response","4","2.1.0","104336","J=YES, F=NO","vjt5pkesp7","2","66","78","55","","","","","","","","","","","","","","","",""
"3267","
  <p style=""font-size: 40px;"">platery</p>
  <p style=""font-size: 16px;"">J = YES &nbsp;&nbsp;&nbsp; F = NO</p>
","j","html-keyboard-response","5","2.1.0","107619","J=YES, F=NO","vjt5pkesp7","2","66","78","55","","","","","","lextale","false","true","","","","","","","",""
"1633","
  <p style=""font-size: 40px;"">denial</p>
  <p style=""font-size: 16px;"">J = YES &nbsp;&nbsp;&nbsp; F = NO</p>
","j","html-keyboard-response","6","2.1.0","109219","J=YES, F=NO","vjt5pkesp7","2","66","78","55","","","","","","lextale","true","true","","","","","","","",""
"9184","
  <p style=""font-size: 40px;"">marrit</p>
  <p style=""font-size: 16px;"">J = YES &nbsp;&nbsp;&nbsp; F = NO</p>
","f","html-keyboard-response","7","2.1.0","118419","J=YES, F=NO","vjt5pkesp7","2","66","78","55","","","","","","lextale","false","true","","","","","","","",""
"1433","
  <p style=""font-size: 40px;"">bottle</p>
  <p style=""font-size: 16px;"">J = YES &nbsp;&nbsp;&nbsp; F = NO</p>
","j","html-keyboard-response","8","2.1.0","119853","J=YES, F=NO","vjt5pkesp7","2","66","78","55","","","","","","lextale","true","false","","","","","","","",""
"9517","
  <p style=""font-size: 40px;"">birst</p>
  <p style=""font-size: 16px;"">J = YES &nbsp;&nbsp;&nbsp; F = NO</p>
","f","html-keyboard-response","9","2.1.0","129386","J=YES, F=NO","vjt5pkesp7","2","66","78","55","","","","","","lextale","false","false","","","","","","","",""
"1017","
  <p style=""font-size: 40px;"">envy</p>
  <p style=""font-size: 16px;"">J = YES &nbsp;&nbsp;&nbsp; F = NO</p>
","j","html-keyboard-response","10","2.1.0","130386","J=YES, F=NO","vjt5pkesp7","2","66","78","55","","","","","","lextale","true","false","","","","","","","",""
"1800","
  <p style=""font-size: 40px;"">brang</p>
  <p style=""font-size: 16px;"">J = YES &nbsp;&nbsp;&nbsp; F = NO</p>
","f","html-keyboard-response","11","2.1.0","132186","J=YES, F=NO","vjt5pkesp7","2","66","78","55","","","","","","lextale","false","false","","","","","","","",""
"1017","
  <p style=""font-size: 40px;"">huge</p>
  <p style=""font-size: 16px;"">J = YES &nbsp;&nbsp;&nbsp; F = NO</p>
","j","html-keyboard-response","12","2.1.0","133203","J=YES, F=NO","vjt5pkesp7","2","66","78","55","","","","","","lextale","true","false","","","","","","","",""
"3150","
  <p style=""font-size: 40px;"">plove</p>
  <p style=""font-size: 16px;"">J = YES &nbsp;&nbsp;&nbsp; F = NO</p>
","j","html-keyboard-response","13","2.1.0","136370","J=YES, F=NO","vjt5pkesp7","2","66","78","55","","","","","","lextale","false","false","","","","","","","",""
"1050","
  <p style=""font-size: 40px;"">border</p>
  <p style=""font-size: 16px;"">J = YES &nbsp;&nbsp;&nbsp; F = NO</p>
","j","html-keyboard-response","14","2.1.0","137420","J=YES, F=NO","vjt5pkesp7","2","66","78","55","","","","","","lextale","true","false","","","","","","","",""
"2383","
  <p style=""font-size: 40px;"">flimsy</p>
  <p style=""font-size: 16px;"">J = YES &nbsp;&nbsp;&nbsp; F = NO</p>
","j","html-keyboard-response","15","2.1.0","139786","J=YES, F=NO","vjt5pkesp7","2","66","78","55","","","","","","lextale","true","false","","","","","","","",""
"967","
  <p style=""font-size: 40px;"">drain</p>
  <p style=""font-size: 16px;"">J = YES &nbsp;&nbsp;&nbsp; F = NO</p>
","j","html-keyboard-response","16","2.1.0","140753","J=YES, F=NO","vjt5pkesp7","2","66","78","55","","","","","","lextale","true","false","","","","","","","",""
"950","
  <p style=""font-size: 40px;"">twindle</p>
  <p style=""font-size: 16px;"">J = YES &nbsp;&nbsp;&nbsp; F = NO</p>
","j","html-keyboard-response","17","2.1.0","141703","J=YES, F=NO","vjt5pkesp7","2","66","78","55","","","","","","lextale","false","false","","","","","","","",""
"933","
  <p style=""font-size: 40px;"">propose</p>
  <p style=""font-size: 16px;"">J = YES &nbsp;&nbsp;&nbsp; F = NO</p>
","j","html-keyboard-response","18","2.1.0","142653","J=YES, F=NO","vjt5pkesp7","2","66","78","55","","","","","","lextale","true","false","","","","","","","",""
"1467","
  <p style=""font-size: 40px;"">forlay</p>
  <p style=""font-size: 16px;"">J = YES &nbsp;&nbsp;&nbsp; F = NO</p>
","f","html-keyboard-response","19","2.1.0","144103","J=YES, F=NO","vjt5pkesp7","2","66","78","55","","","","","","lextale","false","false","","","","","","","",""
"1317","
  <p style=""font-size: 40px;"">tenant</p>
  <p style=""font-size: 16px;"">J = YES &nbsp;&nbsp;&nbsp; F = NO</p>
","j","html-keyboard-response","20","2.1.0","145420","J=YES, F=NO","vjt5pkesp7","2","66","78","55","","","","","","lextale","true","false","","","","","","","",""
"933","
  <p style=""font-size: 40px;"">strain</p>
  <p style=""font-size: 16px;"">J = YES &nbsp;&nbsp;&nbsp; F = NO</p>
","j","html-keyboard-response","21","2.1.0","146353","J=YES, F=NO","vjt5pkesp7","2","66","78","55","","","","","","lextale","true","false","","","","","","","",""
"1200","
  <p style=""font-size: 40px;"">holster</p>
  <p style=""font-size: 16px;"">J = YES &nbsp;&nbsp;&nbsp; F = NO</p>
","j","html-keyboard-response","22","2.1.0","147553","J=YES, F=NO","vjt5pkesp7","2","66","78","55","","","","","","lextale","true","false","","","","","","","",""
"1017","
  <p style=""font-size: 40px;"">hinder</p>
  <p style=""font-size: 16px;"">J = YES &nbsp;&nbsp;&nbsp; F = NO</p>
","j","html-keyboard-response","23","2.1.0","148587","J=YES, F=NO","vjt5pkesp7","2","66","78","55","","","","","","lextale","true","false","","","","","","","",""
"850","
  <p style=""font-size: 40px;"">swindle</p>
  <p style=""font-size: 16px;"">J = YES &nbsp;&nbsp;&nbsp; F = NO</p>
","j","html-keyboard-response","24","2.1.0","149437","J=YES, F=NO","vjt5pkesp7","2","66","78","55","","","","","","lextale","true","false","","","","","","","",""
"6750","
  <p style=""font-size: 40px;"">nuder</p>
  <p style=""font-size: 16px;"">J = YES &nbsp;&nbsp;&nbsp; F = NO</p>
","f","html-keyboard-response","25","2.1.0","156170","J=YES, F=NO","vjt5pkesp7","2","66","78","55","","","","","","lextale","false","false","","","","","","","",""
"767","
  <p style=""font-size: 40px;"">pillow</p>
  <p style=""font-size: 16px;"">J = YES &nbsp;&nbsp;&nbsp; F = NO</p>
","j","html-keyboard-response","26","2.1.0","156953","J=YES, F=NO","vjt5pkesp7","2","66","78","55","","","","","","lextale","true","false","","","","","","","",""
"1133","
  <p style=""font-size: 40px;"">shumble</p>
  <p style=""font-size: 16px;"">J = YES &nbsp;&nbsp;&nbsp; F = NO</p>
","j","html-keyboard-response","27","2.1.0","158070","J=YES, F=NO","vjt5pkesp7","2","66","78","55","","","","","","lextale","false","false","","","","","","","",""
"900","
  <p style=""font-size: 40px;"">thirst</p>
  <p style=""font-size: 16px;"">J = YES &nbsp;&nbsp;&nbsp; F = NO</p>
","j","html-keyboard-response","28","2.1.0","158970","J=YES, F=NO","vjt5pkesp7","2","66","78","55","","","","","","lextale","true","false","","","","","","","",""
"2833","
  <p style=""font-size: 40px;"">unsail</p>
  <p style=""font-size: 16px;"">J = YES &nbsp;&nbsp;&nbsp; F = NO</p>
","j","html-keyboard-response","29","2.1.0","161804","J=YES, F=NO","vjt5pkesp7","2","66","78","55","","","","","","lextale","false","false","","","","","","","",""
"1333","
  <p style=""font-size: 40px;"">rifle</p>
  <p style=""font-size: 16px;"">J = YES &nbsp;&nbsp;&nbsp; F = NO</p>
","j","html-keyboard-response","30","2.1.0","163137","J=YES, F=NO","vjt5pkesp7","2","66","78","55","","","","","","lextale","true","false","","","","","","","",""
"917","
  <p style=""font-size: 40px;"">mush</p>
  <p style=""font-size: 16px;"">J = YES &nbsp;&nbsp;&nbsp; F = NO</p>
","j","html-keyboard-response","31","2.1.0","164054","J=YES, F=NO","vjt5pkesp7","2","66","78","55","","","","","","lextale","false","false","","","","","","","",""
"1000","
  <p style=""font-size: 40px;"">drench</p>
  <p style=""font-size: 16px;"">J = YES &nbsp;&nbsp;&nbsp; F = NO</p>
","j","html-keyboard-response","32","2.1.0","165054","J=YES, F=NO","vjt5pkesp7","2","66","78","55","","","","","","lextale","true","false","","","","","","","",""
"1400","
  <p style=""font-size: 40px;"">snirt</p>
  <p style=""font-size: 16px;"">J = YES &nbsp;&nbsp;&nbsp; F = NO</p>
","f","html-keyboard-response","33","2.1.0","166454","J=YES, F=NO","vjt5pkesp7","2","66","78","55","","","","","","lextale","false","false","","","","","","","",""
"867","
  <p style=""font-size: 40px;"">bitter</p>
  <p style=""font-size: 16px;"">J = YES &nbsp;&nbsp;&nbsp; F = NO</p>
","j","html-keyboard-response","34","2.1.0","167320","J=YES, F=NO","vjt5pkesp7","2","66","78","55","","","","","","lextale","true","false","","","","","","","",""
"2283","
  <p style=""font-size: 40px;"">pliff</p>
  <p style=""font-size: 16px;"">J = YES &nbsp;&nbsp;&nbsp; F = NO</p>
","f","html-keyboard-response","35","2.1.0","169587","J=YES, F=NO","vjt5pkesp7","2","66","78","55","","","","","","lextale","false","false","","","","","","","",""
"633","
  <p style=""font-size: 40px;"">tablet</p>
  <p style=""font-size: 16px;"">J = YES &nbsp;&nbsp;&nbsp; F = NO</p>
","j","html-keyboard-response","36","2.1.0","170254","J=YES, F=NO","vjt5pkesp7","2","66","78","55","","","","","","lextale","true","false","","","","","","","",""
"800","
  <p style=""font-size: 40px;"">glimmer</p>
  <p style=""font-size: 16px;"">J = YES &nbsp;&nbsp;&nbsp; F = NO</p>
","j","html-keyboard-response","37","2.1.0","171037","J=YES, F=NO","vjt5pkesp7","2","66","78","55","","","","","","lextale","true","false","","","","","","","",""
"2867","
  <p style=""font-size: 40px;"">slink</p>
  <p style=""font-size: 16px;"">J = YES &nbsp;&nbsp;&nbsp; F = NO</p>
","f","html-keyboard-response","38","2.1.0","173904","J=YES, F=NO","vjt5pkesp7","2","66","78","55","","","","","","lextale","true","false","","","","","","","",""
"883","
  <p style=""font-size: 40px;"">clever</p>
  <p style=""font-size: 16px;"">J = YES &nbsp;&nbsp;&nbsp; F = NO</p>
","j","html-keyboard-response","39","2.1.0","174771","J=YES, F=NO","vjt5pkesp7","2","66","78","55","","","","","","lextale","true","false","","","","","","","",""
"1650","
  <p style=""font-size: 40px;"">grum</p>
  <p style=""font-size: 16px;"">J = YES &nbsp;&nbsp;&nbsp; F = NO</p>
","j","html-keyboard-response","40","2.1.0","176454","J=YES, F=NO","vjt5pkesp7","2","66","78","55","","","","","","lextale","false","false","","","","","","","",""
"1083","
  <p style=""font-size: 40px;"">string</p>
  <p style=""font-size: 16px;"">J = YES &nbsp;&nbsp;&nbsp; F = NO</p>
","j","html-keyboard-response","41","2.1.0","177521","J=YES, F=NO","vjt5pkesp7","2","66","78","55","","","","","","lextale","true","false","","","","","","","",""
"3583","
  <p style=""font-size: 40px;"">plim</p>
  <p style=""font-size: 16px;"">J = YES &nbsp;&nbsp;&nbsp; F = NO</p>
","f","html-keyboard-response","42","2.1.0","181104","J=YES, F=NO","vjt5pkesp7","2","66","78","55","","","","","","lextale","false","false","","","","","","","",""
"1083","
  <p style=""font-size: 40px;"">cable</p>
  <p style=""font-size: 16px;"">J = YES &nbsp;&nbsp;&nbsp; F = NO</p>
","j","html-keyboard-response","43","2.1.0","182204","J=YES, F=NO","vjt5pkesp7","2","66","78","55","","","","","","lextale","true","false","","","","","","","",""
"6867","
  <p style=""font-size: 40px;"">shrivel</p>
  <p style=""font-size: 16px;"">J = YES &nbsp;&nbsp;&nbsp; F = NO</p>
","f","html-keyboard-response","44","2.1.0","189071","J=YES, F=NO","vjt5pkesp7","2","66","78","55","","","","","","lextale","true","false","","","","","","","",""
"1083","
  <p style=""font-size: 40px;"">tarnish</p>
  <p style=""font-size: 16px;"">J = YES &nbsp;&nbsp;&nbsp; F = NO</p>
","j","html-keyboard-response","45","2.1.0","190171","J=YES, F=NO","vjt5pkesp7","2","66","78","55","","","","","","lextale","true","false","","","","","","","",""
"3150","
  <p style=""font-size: 40px;"">blim</p>
  <p style=""font-size: 16px;"">J = YES &nbsp;&nbsp;&nbsp; F = NO</p>
","f","html-keyboard-response","46","2.1.0","193338","J=YES, F=NO","vjt5pkesp7","2","66","78","55","","","","","","lextale","false","false","","","","","","","",""
"1483","
  <p style=""font-size: 40px;"">stifle</p>
  <p style=""font-size: 16px;"">J = YES &nbsp;&nbsp;&nbsp; F = NO</p>
","f","html-keyboard-response","47","2.1.0","194821","J=YES, F=NO","vjt5pkesp7","2","66","78","55","","","","","","lextale","true","false","","","","","","","",""
"2467","
  <p style=""font-size: 40px;"">bint</p>
  <p style=""font-size: 16px;"">J = YES &nbsp;&nbsp;&nbsp; F = NO</p>
","f","html-keyboard-response","48","2.1.0","197271","J=YES, F=NO","vjt5pkesp7","2","66","78","55","","","","","","lextale","false","false","","","","","","","",""
"683","
  <p style=""font-size: 40px;"">purple</p>
  <p style=""font-size: 16px;"">J = YES &nbsp;&nbsp;&nbsp; F = NO</p>
","j","html-keyboard-response","49","2.1.0","197954","J=YES, F=NO","vjt5pkesp7","2","66","78","55","","","","","","lextale","true","false","","","","","","","",""
"1250","
  <p style=""font-size: 40px;"">wriggle</p>
  <p style=""font-size: 16px;"">J = YES &nbsp;&nbsp;&nbsp; F = NO</p>
","j","html-keyboard-response","50","2.1.0","199204","J=YES, F=NO","vjt5pkesp7","2","66","78","55","","","","","","lextale","true","false","","","","","","","",""
"867","
  <p style=""font-size: 40px;"">mangle</p>
  <p style=""font-size: 16px;"">J = YES &nbsp;&nbsp;&nbsp; F = NO</p>
","j","html-keyboard-response","51","2.1.0","200088","J=YES, F=NO","vjt5pkesp7","2","66","78","55","","","","","","lextale","true","false","","","","","","","",""
"800","
  <p style=""font-size: 40px;"">shramp</p>
  <p style=""font-size: 16px;"">J = YES &nbsp;&nbsp;&nbsp; F = NO</p>
","j","html-keyboard-response","52","2.1.0","200871","J=YES, F=NO","vjt5pkesp7","2","66","78","55","","","","","","lextale","false","false","","","","","","","",""
"1017","
  <p style=""font-size: 40px;"">flirt</p>
  <p style=""font-size: 16px;"">J = YES &nbsp;&nbsp;&nbsp; F = NO</p>
","j","html-keyboard-response","53","2.1.0","201888","J=YES, F=NO","vjt5pkesp7","2","66","78","55","","","","","","lextale","true","false","","","","","","","",""
"1583","
  <p style=""font-size: 40px;"">frip</p>
  <p style=""font-size: 16px;"">J = YES &nbsp;&nbsp;&nbsp; F = NO</p>
","f","html-keyboard-response","54","2.1.0","203471","J=YES, F=NO","vjt5pkesp7","2","66","78","55","","","","","","lextale","false","false","","","","","","","",""
"667","
  <p style=""font-size: 40px;"">tangle</p>
  <p style=""font-size: 16px;"">J = YES &nbsp;&nbsp;&nbsp; F = NO</p>
","j","html-keyboard-response","55","2.1.0","204138","J=YES, F=NO","vjt5pkesp7","2","66","78","55","","","","","","lextale","true","false","","","","","","","",""
"1050","
  <p style=""font-size: 40px;"">crumble</p>
  <p style=""font-size: 16px;"">J = YES &nbsp;&nbsp;&nbsp; F = NO</p>
","j","html-keyboard-response","56","2.1.0","205188","J=YES, F=NO","vjt5pkesp7","2","66","78","55","","","","","","lextale","true","false","","","","","","","",""
"1583","
  <p style=""font-size: 40px;"">wrinkle</p>
  <p style=""font-size: 16px;"">J = YES &nbsp;&nbsp;&nbsp; F = NO</p>
","j","html-keyboard-response","57","2.1.0","206771","J=YES, F=NO","vjt5pkesp7","2","66","78","55","","","","","","lextale","true","false","","","","","","","",""
"1917","
  <p style=""font-size: 40px;"">slumb</p>
  <p style=""font-size: 16px;"">J = YES &nbsp;&nbsp;&nbsp; F = NO</p>
","j","html-keyboard-response","58","2.1.0","208688","J=YES, F=NO","vjt5pkesp7","2","66","78","55","","","","","","lextale","false","false","","","","","","","",""
"667","
  <p style=""font-size: 40px;"">jungle</p>
  <p style=""font-size: 16px;"">J = YES &nbsp;&nbsp;&nbsp; F = NO</p>
","j","html-keyboard-response","59","2.1.0","209371","J=YES, F=NO","vjt5pkesp7","2","66","78","55","","","","","","lextale","true","false","","","","","","","",""
"1717","
  <p style=""font-size: 40px;"">frolick</p>
  <p style=""font-size: 16px;"">J = YES &nbsp;&nbsp;&nbsp; F = NO</p>
","f","html-keyboard-response","60","2.1.0","211055","J=YES, F=NO","vjt5pkesp7","2","66","78","55","","","","","","lextale","false","false","","","","","","","",""
"6217","
      <h2>LexTALE Test Completed</h2>
      <p>Your LexTALE vocabulary score is: <strong>66%</strong></p>
      <p>Press any key to continue.</p>
    "," ","html-keyboard-response","61","2.1.0","217288","J=YES, F=NO","vjt5pkesp7","2","66","78","55","","","","","","","","","","","","","","","",""
"16267","
    <div style=""max-width: 800px; margin: auto; text-align: left;"">
      <h2>Break Time</h2>
      <p>You have completed the first part of the study.</p>
      <p>You may take a short <strong>30-second break</strong> before continuing.</p>
      <p>When you’re ready, press any key to continue to the final task.</p>
    </div>
  "," ","html-keyboard-response","62","2.1.0","233555","J=YES, F=NO","vjt5pkesp7","2","66","78","55","","","","","","","","","","","","","","","",""
"27384","
    <div style=""max-width: 800px; margin: auto; text-align: left;"">
      <h2>Part 2: Lexical Decision Task</h2>
      <p>You will now begin the second part of the study.</p>
      <p>Each trial will follow this sequence:</p>
      <ul>
        <li>A fixation cross (+) appears at the center of the screen.</li>
        <li>You will hear a short beep followed by a spoken word.</li>
        <li>A written word will appear briefly on the screen.</li>
      </ul>
      <p>Your task is to judge whether the <strong>written word</strong> is a real English word.</p>
      <p style=""margin-top: 1em;""><strong>Key responses:</strong></p>
      <ul>
        <li><strong>J</strong> = YES (real English word)</li>
        <li><strong>F</strong> = NO (not a real English word)</li>
      </ul>
      <p>Please respond as quickly and accurately as you can.</p>
      <p style=""margin-top: 2em;"">Press any key to continue.</p>
    </div>
  "," ","html-keyboard-response","63","2.1.0","260956","J=YES, F=NO","vjt5pkesp7","2","66","78","55","","","","","","","","","","","","","","","",""
"10717","
    <div style=""max-width: 800px; margin: auto; text-align: left;"">
      <h2>Before You Begin</h2>
      <p>Make sure your sound is turned on.</p>
      <p>You will hear audio during each trial, but your decision should be based only on the <strong>written word</strong> you see on the screen.</p>
      <p><strong>Reminder:</strong></p>
      <ul>
        <li><strong>J</strong> = YES (real English word)</li>
        <li><strong>F</strong> = NO (not a real English word)</li>
      </ul>
      <p style=""margin-top: 2em;"">Press any key when you are ready to begin.</p>
    </div>
  "," ","html-keyboard-response","64","2.1.0","271689","J=YES, F=NO","vjt5pkesp7","2","66","78","55","","","","","","","","","","","","","","","",""
"3617","
    <div style=""max-width: 800px; margin: auto; text-align: left;"">
      <h2>Part 2: Practice Trials</h2>
      <p>You will now complete a few <strong>practice trials</strong> to get familiar with the task.</p>
      <p>These trials are <strong>not scored</strong> and are only to help you get used to the format.</p>
      <p style=""margin-top: 2em;"">Press any key to begin.</p>
    </div>
  "," ","html-keyboard-response","65","2.1.0","275289","J=YES, F=NO","vjt5pkesp7","2","66","78","55","","","","","","","","","","","","","","","",""
"2083","<p>Starting practice block 1 of 2. Press any key to continue.</p>"," ","html-keyboard-response","66","2.1.0","277373","J=YES, F=NO","vjt5pkesp7","2","66","78","55","","","","","","","","","","","","","","","",""
"null","<p style=""font-size: 50px;"">+</p>","null","html-keyboard-response","67","2.1.0","277689","J=YES, F=NO","vjt5pkesp7","2","66","78","55","","","","","","","","","","","","","","","",""
"null","audio/beep-329314.mp3","null","audio-keyboard-response","68","2.1.0","279173","J=YES, F=NO","vjt5pkesp7","2","66","78","55","","","","","","","","","","","","","","","",""
"null","audio/empire.wav","null","audio-keyboard-response","69","2.1.0","280039","J=YES, F=NO","vjt5pkesp7","2","66","78","55","","","","","","","","","","","","","","","",""
"null","
          <p id=""word"" style=""font-size: 40px;"">slorby</p>
          <p style=""font-size: 16px;"">J = YES &nbsp;&nbsp;&nbsp; F = NO</p>
        ","null","html-keyboard-response","70","2.1.0","281539","J=YES, F=NO","vjt5pkesp7","2","66","78","55","","","","","","","","","slorby","empire","pseudoword","pseudoword","f","false","",""
"null","<p style=""font-size: 50px;"">+</p>","null","html-keyboard-response","71","2.1.0","281856","J=YES, F=NO","vjt5pkesp7","2","66","78","55","","","","","","","","","","","","","","","",""
"null","audio/beep-329314.mp3","null","audio-keyboard-response","72","2.1.0","283339","J=YES, F=NO","vjt5pkesp7","2","66","78","55","","","","","","","","","","","","","","","",""
"null","audio/client1.wav","null","audio-keyboard-response","73","2.1.0","284056","J=YES, F=NO","vjt5pkesp7","2","66","78","55","","","","","","","","","","","","","","","",""
"null","
          <p id=""word"" style=""font-size: 40px;"">droothe</p>
          <p style=""font-size: 16px;"">J = YES &nbsp;&nbsp;&nbsp; F = NO</p>
        ","null","html-keyboard-response","74","2.1.0","285556","J=YES, F=NO","vjt5pkesp7","2","66","78","55","","","","","","","","","droothe","client1","pseudoword","pseudoword","f","false","",""
"null","<p style=""font-size: 50px;"">+</p>","null","html-keyboard-response","75","2.1.0","285873","J=YES, F=NO","vjt5pkesp7","2","66","78","55","","","","","","","","","","","","","","","",""
"null","audio/beep-329314.mp3","null","audio-keyboard-response","76","2.1.0","287356","J=YES, F=NO","vjt5pkesp7","2","66","78","55","","","","","","","","","","","","","","","",""
"null","audio/birth1.wav","null","audio-keyboard-response","77","2.1.0","287906","J=YES, F=NO","vjt5pkesp7","2","66","78","55","","","","","","","","","","","","","","","",""
"783","
          <p id=""word"" style=""font-size: 40px;"">peel</p>
          <p style=""font-size: 16px;"">J = YES &nbsp;&nbsp;&nbsp; F = NO</p>
        ","j","html-keyboard-response","78","2.1.0","288689","J=YES, F=NO","vjt5pkesp7","2","66","78","55","","","","","","","","","peel","birth1","filler","filler","j","true","",""
"null","<p style=""font-size: 50px;"">+</p>","null","html-keyboard-response","79","2.1.0","288989","J=YES, F=NO","vjt5pkesp7","2","66","78","55","","","","","","","","","","","","","","","",""
"null","audio/beep-329314.mp3","null","audio-keyboard-response","80","2.1.0","290489","J=YES, F=NO","vjt5pkesp7","2","66","78","55","","","","","","","","","","","","","","","",""
"null","audio/theory1.wav","null","audio-keyboard-response","81","2.1.0","291273","J=YES, F=NO","vjt5pkesp7","2","66","78","55","","","","","","","","","","","","","","","",""
"733","
          <p id=""word"" style=""font-size: 40px;"">scolve</p>
          <p style=""font-size: 16px;"">J = YES &nbsp;&nbsp;&nbsp; F = NO</p>
        ","f","html-keyboard-response","82","2.1.0","292023","J=YES, F=NO","vjt5pkesp7","2","66","78","55","","","","","","","","","scolve","theory1","pseudoword","pseudoword","f","true","",""
"null","<p style=""font-size: 50px;"">+</p>","null","html-keyboard-response","83","2.1.0","292340","J=YES, F=NO","vjt5pkesp7","2","66","78","55","","","","","","","","","","","","","","","",""
"null","audio/beep-329314.mp3","null","audio-keyboard-response","84","2.1.0","293806","J=YES, F=NO","vjt5pkesp7","2","66","78","55","","","","","","","","","","","","","","","",""
"null","audio/ankle1.wav","null","audio-keyboard-response","85","2.1.0","294290","J=YES, F=NO","vjt5pkesp7","2","66","78","55","","","","","","","","","","","","","","","",""
"650","
          <p id=""word"" style=""font-size: 40px;"">kick</p>
          <p style=""font-size: 16px;"">J = YES &nbsp;&nbsp;&nbsp; F = NO</p>
        ","j","html-keyboard-response","86","2.1.0","294923","J=YES, F=NO","vjt5pkesp7","2","66","78","55","","","","","","","","","kick","ankle1","filler","filler","j","true","",""
"null","<p style=""font-size: 50px;"">+</p>","null","html-keyboard-response","87","2.1.0","295240","J=YES, F=NO","vjt5pkesp7","2","66","78","55","","","","","","","","","","","","","","","",""
"null","audio/beep-329314.mp3","null","audio-keyboard-response","88","2.1.0","296723","J=YES, F=NO","vjt5pkesp7","2","66","78","55","","","","","","","","","","","","","","","",""
"null","audio/window1.wav","null","audio-keyboard-response","89","2.1.0","297273","J=YES, F=NO","vjt5pkesp7","2","66","78","55","","","","","","","","","","","","","","","",""
"767","
          <p id=""word"" style=""font-size: 40px;"">toss</p>
          <p style=""font-size: 16px;"">J = YES &nbsp;&nbsp;&nbsp; F = NO</p>
        ","j","html-keyboard-response","90","2.1.0","298040","J=YES, F=NO","vjt5pkesp7","2","66","78","55","","","","","","","","","toss","window1","filler","filler","j","true","",""
"null","<p style=""font-size: 50px;"">+</p>","null","html-keyboard-response","91","2.1.0","298340","J=YES, F=NO","vjt5pkesp7","2","66","78","55","","","","","","","","","","","","","","","",""
"null","audio/beep-329314.mp3","null","audio-keyboard-response","92","2.1.0","299823","J=YES, F=NO","vjt5pkesp7","2","66","78","55","","","","","","","","","","","","","","","",""
"null","audio/haste1.wav","null","audio-keyboard-response","93","2.1.0","300423","J=YES, F=NO","vjt5pkesp7","2","66","78","55","","","","","","","","","","","","","","","",""
"833","
          <p id=""word"" style=""font-size: 40px;"">coraconate</p>
          <p style=""font-size: 16px;"">J = YES &nbsp;&nbsp;&nbsp; F = NO</p>
        ","f","html-keyboard-response","94","2.1.0","301240","J=YES, F=NO","vjt5pkesp7","2","66","78","55","","","","","","","","","coraconate","haste1","pseudoword","pseudoword","f","true","",""
"null","<p style=""font-size: 50px;"">+</p>","null","html-keyboard-response","95","2.1.0","301556","J=YES, F=NO","vjt5pkesp7","2","66","78","55","","","","","","","","","","","","","","","",""
"null","audio/beep-329314.mp3","null","audio-keyboard-response","96","2.1.0","303040","J=YES, F=NO","vjt5pkesp7","2","66","78","55","","","","","","","","","","","","","","","",""
"null","audio/uncle1.wav","null","audio-keyboard-response","97","2.1.0","303623","J=YES, F=NO","vjt5pkesp7","2","66","78","55","","","","","","","","","","","","","","","",""
"533","
          <p id=""word"" style=""font-size: 40px;"">dramble</p>
          <p style=""font-size: 16px;"">J = YES &nbsp;&nbsp;&nbsp; F = NO</p>
        ","j","html-keyboard-response","98","2.1.0","304156","J=YES, F=NO","vjt5pkesp7","2","66","78","55","","","","","","","","","dramble","uncle1","pseudoword","pseudoword","f","false","",""
"null","<p style=""font-size: 50px;"">+</p>","null","html-keyboard-response","99","2.1.0","304473","J=YES, F=NO","vjt5pkesp7","2","66","78","55","","","","","","","","","","","","","","","",""
"null","audio/beep-329314.mp3","null","audio-keyboard-response","100","2.1.0","305940","J=YES, F=NO","vjt5pkesp7","2","66","78","55","","","","","","","","","","","","","","","",""
"null","audio/bush1.wav","null","audio-keyboard-response","101","2.1.0","306540","J=YES, F=NO","vjt5pkesp7","2","66","78","55","","","","","","","","","","","","","","","",""
"867","
          <p id=""word"" style=""font-size: 40px;"">platined</p>
          <p style=""font-size: 16px;"">J = YES &nbsp;&nbsp;&nbsp; F = NO</p>
        ","f","html-keyboard-response","102","2.1.0","307406","J=YES, F=NO","vjt5pkesp7","2","66","78","55","","","","","","","","","platined","bush1","pseudoword","pseudoword","f","true","",""
"null","<p style=""font-size: 50px;"">+</p>","null","html-keyboard-response","103","2.1.0","307723","J=YES, F=NO","vjt5pkesp7","2","66","78","55","","","","","","","","","","","","","","","",""
"null","audio/beep-329314.mp3","null","audio-keyboard-response","104","2.1.0","309207","J=YES, F=NO","vjt5pkesp7","2","66","78","55","","","","","","","","","","","","","","","",""
"null","audio/beach1.wav","null","audio-keyboard-response","105","2.1.0","309757","J=YES, F=NO","vjt5pkesp7","2","66","78","55","","","","","","","","","","","","","","","",""
"483","
          <p id=""word"" style=""font-size: 40px;"">drive</p>
          <p style=""font-size: 16px;"">J = YES &nbsp;&nbsp;&nbsp; F = NO</p>
        ","j","html-keyboard-response","106","2.1.0","310257","J=YES, F=NO","vjt5pkesp7","2","66","78","55","","","","","","","","","drive","beach1","filler","filler","j","true","",""
"null","<p style=""font-size: 50px;"">+</p>","null","html-keyboard-response","107","2.1.0","310557","J=YES, F=NO","vjt5pkesp7","2","66","78","55","","","","","","","","","","","","","","","",""
"null","audio/beep-329314.mp3","null","audio-keyboard-response","108","2.1.0","312023","J=YES, F=NO","vjt5pkesp7","2","66","78","55","","","","","","","","","","","","","","","",""
"null","audio/golf1.wav","null","audio-keyboard-response","109","2.1.0","312740","J=YES, F=NO","vjt5pkesp7","2","66","78","55","","","","","","","","","","","","","","","",""
"650","
          <p id=""word"" style=""font-size: 40px;"">drabble</p>
          <p style=""font-size: 16px;"">J = YES &nbsp;&nbsp;&nbsp; F = NO</p>
        ","f","html-keyboard-response","110","2.1.0","313373","J=YES, F=NO","vjt5pkesp7","2","66","78","55","","","","","","","","","drabble","golf1","pseudoword","pseudoword","f","true","",""
"null","<p style=""font-size: 50px;"">+</p>","null","html-keyboard-response","111","2.1.0","313673","J=YES, F=NO","vjt5pkesp7","2","66","78","55","","","","","","","","","","","","","","","",""
"null","audio/beep-329314.mp3","null","audio-keyboard-response","112","2.1.0","315157","J=YES, F=NO","vjt5pkesp7","2","66","78","55","","","","","","","","","","","","","","","",""
"null","audio/butter1.wav","null","audio-keyboard-response","113","2.1.0","315623","J=YES, F=NO","vjt5pkesp7","2","66","78","55","","","","","","","","","","","","","","","",""
"450","
          <p id=""word"" style=""font-size: 40px;"">chew</p>
          <p style=""font-size: 16px;"">J = YES &nbsp;&nbsp;&nbsp; F = NO</p>
        ","j","html-keyboard-response","114","2.1.0","316090","J=YES, F=NO","vjt5pkesp7","2","66","78","55","","","","","","","","","chew","butter1","filler","filler","j","true","",""
"1450","<p>Starting practice block 2 of 2. Press any key to continue.</p>"," ","html-keyboard-response","115","2.1.0","317523","J=YES, F=NO","vjt5pkesp7","2","66","78","55","","","","","","","","","","","","","","","",""
"null","<p style=""font-size: 50px;"">+</p>","null","html-keyboard-response","116","2.1.0","317823","J=YES, F=NO","vjt5pkesp7","2","66","78","55","","","","","","","","","","","","","","","",""
"null","audio/beep-329314.mp3","null","audio-keyboard-response","117","2.1.0","319307","J=YES, F=NO","vjt5pkesp7","2","66","78","55","","","","","","","","","","","","","","","",""
"null","audio/account1.wav","null","audio-keyboard-response","118","2.1.0","319940","J=YES, F=NO","vjt5pkesp7","2","66","78","55","","","","","","","","","","","","","","","",""
"417","
          <p id=""word"" style=""font-size: 40px;"">paint</p>
          <p style=""font-size: 16px;"">J = YES &nbsp;&nbsp;&nbsp; F = NO</p>
        ","j","html-keyboard-response","119","2.1.0","320357","J=YES, F=NO","vjt5pkesp7","2","66","78","55","","","","","","","","","paint","account1","filler","filler","j","true","",""
"null","<p style=""font-size: 50px;"">+</p>","null","html-keyboard-response","120","2.1.0","320657","J=YES, F=NO","vjt5pkesp7","2","66","78","55","","","","","","","","","","","","","","","",""
"null","audio/beep-329314.mp3","null","audio-keyboard-response","121","2.1.0","322140","J=YES, F=NO","vjt5pkesp7","2","66","78","55","","","","","","","","","","","","","","","",""
"null","audio/bishop1.wav","null","audio-keyboard-response","122","2.1.0","322890","J=YES, F=NO","vjt5pkesp7","2","66","78","55","","","","","","","","","","","","","","","",""
"400","
          <p id=""word"" style=""font-size: 40px;"">play</p>
          <p style=""font-size: 16px;"">J = YES &nbsp;&nbsp;&nbsp; F = NO</p>
        ","j","html-keyboard-response","123","2.1.0","323273","J=YES, F=NO","vjt5pkesp7","2","66","78","55","","","","","","","","","play","bishop1","filler","filler","j","true","",""
"null","<p style=""font-size: 50px;"">+</p>","null","html-keyboard-response","124","2.1.0","323590","J=YES, F=NO","vjt5pkesp7","2","66","78","55","","","","","","","","","","","","","","","",""
"null","audio/beep-329314.mp3","null","audio-keyboard-response","125","2.1.0","325074","J=YES, F=NO","vjt5pkesp7","2","66","78","55","","","","","","","","","","","","","","","",""
"null","audio/belief.wav","null","audio-keyboard-response","126","2.1.0","325707","J=YES, F=NO","vjt5pkesp7","2","66","78","55","","","","","","","","","","","","","","","",""
"417","
          <p id=""word"" style=""font-size: 40px;"">read</p>
          <p style=""font-size: 16px;"">J = YES &nbsp;&nbsp;&nbsp; F = NO</p>
        ","j","html-keyboard-response","127","2.1.0","326140","J=YES, F=NO","vjt5pkesp7","2","66","78","55","","","","","","","","","read","belief","filler","filler","j","true","",""
"null","<p style=""font-size: 50px;"">+</p>","null","html-keyboard-response","128","2.1.0","326440","J=YES, F=NO","vjt5pkesp7","2","66","78","55","","","","","","","","","","","","","","","",""
"null","audio/beep-329314.mp3","null","audio-keyboard-response","129","2.1.0","327940","J=YES, F=NO","vjt5pkesp7","2","66","78","55","","","","","","","","","","","","","","","",""
"null","audio/sand.wav","null","audio-keyboard-response","130","2.1.0","328724","J=YES, F=NO","vjt5pkesp7","2","66","78","55","","","","","","","","","","","","","","","",""
"717","
          <p id=""word"" style=""font-size: 40px;"">proted</p>
          <p style=""font-size: 16px;"">J = YES &nbsp;&nbsp;&nbsp; F = NO</p>
        ","f","html-keyboard-response","131","2.1.0","329440","J=YES, F=NO","vjt5pkesp7","2","66","78","55","","","","","","","","","proted","sand","pseudoword","pseudoword","f","true","",""
"null","<p style=""font-size: 50px;"">+</p>","null","html-keyboard-response","132","2.1.0","329757","J=YES, F=NO","vjt5pkesp7","2","66","78","55","","","","","","","","","","","","","","","",""
"null","audio/beep-329314.mp3","null","audio-keyboard-response","133","2.1.0","331224","J=YES, F=NO","vjt5pkesp7","2","66","78","55","","","","","","","","","","","","","","","",""
"null","audio/terrain.wav","null","audio-keyboard-response","134","2.1.0","331774","J=YES, F=NO","vjt5pkesp7","2","66","78","55","","","","","","","","","","","","","","","",""
"450","
          <p id=""word"" style=""font-size: 40px;"">twist</p>
          <p style=""font-size: 16px;"">J = YES &nbsp;&nbsp;&nbsp; F = NO</p>
        ","j","html-keyboard-response","135","2.1.0","332224","J=YES, F=NO","vjt5pkesp7","2","66","78","55","","","","","","","","","twist","terrain","filler","filler","j","true","",""
"null","<p style=""font-size: 50px;"">+</p>","null","html-keyboard-response","136","2.1.0","332524","J=YES, F=NO","vjt5pkesp7","2","66","78","55","","","","","","","","","","","","","","","",""
"null","audio/beep-329314.mp3","null","audio-keyboard-response","137","2.1.0","334007","J=YES, F=NO","vjt5pkesp7","2","66","78","55","","","","","","","","","","","","","","","",""
"null","audio/cancer1.wav","null","audio-keyboard-response","138","2.1.0","334690","J=YES, F=NO","vjt5pkesp7","2","66","78","55","","","","","","","","","","","","","","","",""
"417","
          <p id=""word"" style=""font-size: 40px;"">draw</p>
          <p style=""font-size: 16px;"">J = YES &nbsp;&nbsp;&nbsp; F = NO</p>
        ","j","html-keyboard-response","139","2.1.0","335107","J=YES, F=NO","vjt5pkesp7","2","66","78","55","","","","","","","","","draw","cancer1","filler","filler","j","true","",""
"null","<p style=""font-size: 50px;"">+</p>","null","html-keyboard-response","140","2.1.0","335407","J=YES, F=NO","vjt5pkesp7","2","66","78","55","","","","","","","","","","","","","","","",""
"null","audio/beep-329314.mp3","null","audio-keyboard-response","141","2.1.0","336890","J=YES, F=NO","vjt5pkesp7","2","66","78","55","","","","","","","","","","","","","","","",""
"null","audio/strength.wav","null","audio-keyboard-response","142","2.1.0","337590","J=YES, F=NO","vjt5pkesp7","2","66","78","55","","","","","","","","","","","","","","","",""
"617","
          <p id=""word"" style=""font-size: 40px;"">plabet</p>
          <p style=""font-size: 16px;"">J = YES &nbsp;&nbsp;&nbsp; F = NO</p>
        ","f","html-keyboard-response","143","2.1.0","338207","J=YES, F=NO","vjt5pkesp7","2","66","78","55","","","","","","","","","plabet","strength","pseudoword","pseudoword","f","true","",""
"null","<p style=""font-size: 50px;"">+</p>","null","html-keyboard-response","144","2.1.0","338507","J=YES, F=NO","vjt5pkesp7","2","66","78","55","","","","","","","","","","","","","","","",""
"null","audio/beep-329314.mp3","null","audio-keyboard-response","145","2.1.0","339990","J=YES, F=NO","vjt5pkesp7","2","66","78","55","","","","","","","","","","","","","","","",""
"null","audio/ego.wav","null","audio-keyboard-response","146","2.1.0","340974","J=YES, F=NO","vjt5pkesp7","2","66","78","55","","","","","","","","","","","","","","","",""
"667","
          <p id=""word"" style=""font-size: 40px;"">bruite</p>
          <p style=""font-size: 16px;"">J = YES &nbsp;&nbsp;&nbsp; F = NO</p>
        ","f","html-keyboard-response","147","2.1.0","341624","J=YES, F=NO","vjt5pkesp7","2","66","78","55","","","","","","","","","bruite","ego","pseudoword","pseudoword","f","true","",""
"null","<p style=""font-size: 50px;"">+</p>","null","html-keyboard-response","148","2.1.0","341924","J=YES, F=NO","vjt5pkesp7","2","66","78","55","","","","","","","","","","","","","","","",""
"null","audio/beep-329314.mp3","null","audio-keyboard-response","149","2.1.0","343424","J=YES, F=NO","vjt5pkesp7","2","66","78","55","","","","","","","","","","","","","","","",""
"null","audio/baby.wav","null","audio-keyboard-response","150","2.1.0","343991","J=YES, F=NO","vjt5pkesp7","2","66","78","55","","","","","","","","","","","","","","","",""
"600","
          <p id=""word"" style=""font-size: 40px;"">lift</p>
          <p style=""font-size: 16px;"">J = YES &nbsp;&nbsp;&nbsp; F = NO</p>
        ","j","html-keyboard-response","151","2.1.0","344591","J=YES, F=NO","vjt5pkesp7","2","66","78","55","","","","","","","","","lift","baby","filler","filler","j","true","",""
"null","<p style=""font-size: 50px;"">+</p>","null","html-keyboard-response","152","2.1.0","344891","J=YES, F=NO","vjt5pkesp7","2","66","78","55","","","","","","","","","","","","","","","",""
"null","audio/beep-329314.mp3","null","audio-keyboard-response","153","2.1.0","346374","J=YES, F=NO","vjt5pkesp7","2","66","78","55","","","","","","","","","","","","","","","",""
"null","audio/camera1.wav","null","audio-keyboard-response","154","2.1.0","346807","J=YES, F=NO","vjt5pkesp7","2","66","78","55","","","","","","","","","","","","","","","",""
"600","
          <p id=""word"" style=""font-size: 40px;"">stir</p>
          <p style=""font-size: 16px;"">J = YES &nbsp;&nbsp;&nbsp; F = NO</p>
        ","j","html-keyboard-response","155","2.1.0","347407","J=YES, F=NO","vjt5pkesp7","2","66","78","55","","","","","","","","","stir","camera1","filler","filler","j","true","",""
"null","<p style=""font-size: 50px;"">+</p>","null","html-keyboard-response","156","2.1.0","347724","J=YES, F=NO","vjt5pkesp7","2","66","78","55","","","","","","","","","","","","","","","",""
"null","audio/beep-329314.mp3","null","audio-keyboard-response","157","2.1.0","349191","J=YES, F=NO","vjt5pkesp7","2","66","78","55","","","","","","","","","","","","","","","",""
"null","audio/gift1.wav","null","audio-keyboard-response","158","2.1.0","349741","J=YES, F=NO","vjt5pkesp7","2","66","78","55","","","","","","","","","","","","","","","",""
"533","
          <p id=""word"" style=""font-size: 40px;"">protsh</p>
          <p style=""font-size: 16px;"">J = YES &nbsp;&nbsp;&nbsp; F = NO</p>
        ","f","html-keyboard-response","159","2.1.0","350257","J=YES, F=NO","vjt5pkesp7","2","66","78","55","","","","","","","","","protsh","gift1","pseudoword","pseudoword","f","true","",""
"null","<p style=""font-size: 50px;"">+</p>","null","html-keyboard-response","160","2.1.0","350574","J=YES, F=NO","vjt5pkesp7","2","66","78","55","","","","","","","","","","","","","","","",""
"null","audio/beep-329314.mp3","null","audio-keyboard-response","161","2.1.0","352057","J=YES, F=NO","vjt5pkesp7","2","66","78","55","","","","","","","","","","","","","","","",""
"null","audio/handle.wav","null","audio-keyboard-response","162","2.1.0","352624","J=YES, F=NO","vjt5pkesp7","2","66","78","55","","","","","","","","","","","","","","","",""
"533","
          <p id=""word"" style=""font-size: 40px;"">moutes</p>
          <p style=""font-size: 16px;"">J = YES &nbsp;&nbsp;&nbsp; F = NO</p>
        ","f","html-keyboard-response","163","2.1.0","353157","J=YES, F=NO","vjt5pkesp7","2","66","78","55","","","","","","","","","moutes","handle","pseudoword","pseudoword","f","true","",""
"5050","
    <div style=""max-width: 800px; margin: auto; text-align: left;"">
      <h2>Part 2: Main Trials</h2>
      <p>Great job on the practice trials!</p>
      <p>You will now begin the <strong>main set of trials</strong>.</p>
      <p>Remember your key assignments:</p>
      <ul>
        <li><strong>J</strong> = YES (real English word)</li>
        <li><strong>F</strong> = NO (not a real English word)</li>
      </ul>
      <p>Try to respond as <strong>quickly and accurately</strong> as possible.</p>
      <p style=""margin-top: 2em;"">Press any key to begin the main trials.</p>
    </div>
  "," ","html-keyboard-response","164","2.1.0","358224","J=YES, F=NO","vjt5pkesp7","2","66","78","55","","","","","","","","","","","","","","","",""
"1350","<p>Starting main block 1 of 8. Press any key to continue.</p>"," ","html-keyboard-response","165","2.1.0","359558","J=YES, F=NO","vjt5pkesp7","2","66","78","55","","","","","","","","","","","","","","","",""
"null","<p style=""font-size: 50px;"">+</p>","null","html-keyboard-response","166","2.1.0","359858","J=YES, F=NO","vjt5pkesp7","2","66","78","55","","","","","","","","","","","","","","","",""
"null","audio/beep-329314.mp3","null","audio-keyboard-response","167","2.1.0","361358","J=YES, F=NO","vjt5pkesp7","2","66","78","55","","","","","","","","","","","","","","","",""
"null","audio/test1.wav","null","audio-keyboard-response","168","2.1.0","361858","J=YES, F=NO","vjt5pkesp7","2","66","78","55","","","","","","","","","","","","","","","",""
"450","
          <p id=""word"" style=""font-size: 40px;"">run</p>
          <p style=""font-size: 16px;"">J = YES &nbsp;&nbsp;&nbsp; F = NO</p>
        ","j","html-keyboard-response","169","2.1.0","362324","J=YES, F=NO","vjt5pkesp7","2","66","78","55","","","","","","","","","run","test1","metaphor","experimental","j","true","",""
"null","<p style=""font-size: 50px;"">+</p>","null","html-keyboard-response","170","2.1.0","362608","J=YES, F=NO","vjt5pkesp7","2","66","78","55","","","","","","","","","","","","","","","",""
"null","audio/beep-329314.mp3","null","audio-keyboard-response","171","2.1.0","364091","J=YES, F=NO","vjt5pkesp7","2","66","78","55","","","","","","","","","","","","","","","",""
"null","audio/grass.wav","null","audio-keyboard-response","172","2.1.0","364708","J=YES, F=NO","vjt5pkesp7","2","66","78","55","","","","","","","","","","","","","","","",""
"567","
          <p id=""word"" style=""font-size: 40px;"">milames</p>
          <p style=""font-size: 16px;"">J = YES &nbsp;&nbsp;&nbsp; F = NO</p>
        ","f","html-keyboard-response","173","2.1.0","365258","J=YES, F=NO","vjt5pkesp7","2","66","78","55","","","","","","","","","milames","grass","pseudoword","pseudoword","f","true","",""
"null","<p style=""font-size: 50px;"">+</p>","null","html-keyboard-response","174","2.1.0","365558","J=YES, F=NO","vjt5pkesp7","2","66","78","55","","","","","","","","","","","","","","","",""
"null","audio/beep-329314.mp3","null","audio-keyboard-response","175","2.1.0","367041","J=YES, F=NO","vjt5pkesp7","2","66","78","55","","","","","","","","","","","","","","","",""
"null","audio/topic.wav","null","audio-keyboard-response","176","2.1.0","367558","J=YES, F=NO","vjt5pkesp7","2","66","78","55","","","","","","","","","","","","","","","",""
"583","
          <p id=""word"" style=""font-size: 40px;"">infortuitist</p>
          <p style=""font-size: 16px;"">J = YES &nbsp;&nbsp;&nbsp; F = NO</p>
        ","f","html-keyboard-response","177","2.1.0","368141","J=YES, F=NO","vjt5pkesp7","2","66","78","55","","","","","","","","","infortuitist","topic","pseudoword","pseudoword","f","true","",""
"null","<p style=""font-size: 50px;"">+</p>","null","html-keyboard-response","178","2.1.0","368458","J=YES, F=NO","vjt5pkesp7","2","66","78","55","","","","","","","","","","","","","","","",""
"null","audio/beep-329314.mp3","null","audio-keyboard-response","179","2.1.0","369941","J=YES, F=NO","vjt5pkesp7","2","66","78","55","","","","","","","","","","","","","","","",""
"null","audio/foot1.wav","null","audio-keyboard-response","180","2.1.0","370441","J=YES, F=NO","vjt5pkesp7","2","66","78","55","","","","","","","","","","","","","","","",""
"600","
          <p id=""word"" style=""font-size: 40px;"">thrutt</p>
          <p style=""font-size: 16px;"">J = YES &nbsp;&nbsp;&nbsp; F = NO</p>
        ","f","html-keyboard-response","181","2.1.0","371058","J=YES, F=NO","vjt5pkesp7","2","66","78","55","","","","","","","","","thrutt","foot1","pseudoword","pseudoword","f","true","",""
"null","<p style=""font-size: 50px;"">+</p>","null","html-keyboard-response","182","2.1.0","371358","J=YES, F=NO","vjt5pkesp7","2","66","78","55","","","","","","","","","","","","","","","",""
"null","audio/beep-329314.mp3","null","audio-keyboard-response","183","2.1.0","372824","J=YES, F=NO","vjt5pkesp7","2","66","78","55","","","","","","","","","","","","","","","",""
"null","audio/life1.wav","null","audio-keyboard-response","184","2.1.0","373341","J=YES, F=NO","vjt5pkesp7","2","66","78","55","","","","","","","","","","","","","","","",""
"367","
          <p id=""word"" style=""font-size: 40px;"">give</p>
          <p style=""font-size: 16px;"">J = YES &nbsp;&nbsp;&nbsp; F = NO</p>
        ","j","html-keyboard-response","185","2.1.0","373724","J=YES, F=NO","vjt5pkesp7","2","66","78","55","","","","","","","","","give","life1","metaphor","experimental","j","true","",""
"null","<p style=""font-size: 50px;"">+</p>","null","html-keyboard-response","186","2.1.0","374024","J=YES, F=NO","vjt5pkesp7","2","66","78","55","","","","","","","","","","","","","","","",""
"null","audio/beep-329314.mp3","null","audio-keyboard-response","187","2.1.0","375508","J=YES, F=NO","vjt5pkesp7","2","66","78","55","","","","","","","","","","","","","","","",""
"null","audio/cave1.wav","null","audio-keyboard-response","188","2.1.0","376008","J=YES, F=NO","vjt5pkesp7","2","66","78","55","","","","","","","","","","","","","","","",""
"400","
          <p id=""word"" style=""font-size: 40px;"">blacket</p>
          <p style=""font-size: 16px;"">J = YES &nbsp;&nbsp;&nbsp; F = NO</p>
        ","j","html-keyboard-response","189","2.1.0","376408","J=YES, F=NO","vjt5pkesp7","2","66","78","55","","","","","","","","","blacket","cave1","pseudoword","pseudoword","f","false","",""
"null","<p style=""font-size: 50px;"">+</p>","null","html-keyboard-response","190","2.1.0","376741","J=YES, F=NO","vjt5pkesp7","2","66","78","55","","","","","","","","","","","","","","","",""
"null","audio/beep-329314.mp3","null","audio-keyboard-response","191","2.1.0","378208","J=YES, F=NO","vjt5pkesp7","2","66","78","55","","","","","","","","","","","","","","","",""
"null","audio/brain.wav","null","audio-keyboard-response","192","2.1.0","378625","J=YES, F=NO","vjt5pkesp7","2","66","78","55","","","","","","","","","","","","","","","",""
"433","
          <p id=""word"" style=""font-size: 40px;"">flood</p>
          <p style=""font-size: 16px;"">J = YES &nbsp;&nbsp;&nbsp; F = NO</p>
        ","j","html-keyboard-response","193","2.1.0","379075","J=YES, F=NO","vjt5pkesp7","2","66","78","55","","","","","","","","","flood","brain","metaphor","experimental","j","true","",""
"null","<p style=""font-size: 50px;"">+</p>","null","html-keyboard-response","194","2.1.0","379391","J=YES, F=NO","vjt5pkesp7","2","66","78","55","","","","","","","","","","","","","","","",""
"null","audio/beep-329314.mp3","null","audio-keyboard-response","195","2.1.0","380858","J=YES, F=NO","vjt5pkesp7","2","66","78","55","","","","","","","","","","","","","","","",""
"null","audio/dome.wav","null","audio-keyboard-response","196","2.1.0","381258","J=YES, F=NO","vjt5pkesp7","2","66","78","55","","","","","","","","","","","","","","","",""
"450","
          <p id=""word"" style=""font-size: 40px;"">scrupliness</p>
          <p style=""font-size: 16px;"">J = YES &nbsp;&nbsp;&nbsp; F = NO</p>
        ","j","html-keyboard-response","197","2.1.0","381691","J=YES, F=NO","vjt5pkesp7","2","66","78","55","","","","","","","","","scrupliness","dome","pseudoword","pseudoword","f","false","",""
"null","<p style=""font-size: 50px;"">+</p>","null","html-keyboard-response","198","2.1.0","382008","J=YES, F=NO","vjt5pkesp7","2","66","78","55","","","","","","","","","","","","","","","",""
"null","audio/beep-329314.mp3","null","audio-keyboard-response","199","2.1.0","383491","J=YES, F=NO","vjt5pkesp7","2","66","78","55","","","","","","","","","","","","","","","",""
"null","audio/bottle.wav","null","audio-keyboard-response","200","2.1.0","383891","J=YES, F=NO","vjt5pkesp7","2","66","78","55","","","","","","","","","","","","","","","",""
"517","
          <p id=""word"" style=""font-size: 40px;"">watch</p>
          <p style=""font-size: 16px;"">J = YES &nbsp;&nbsp;&nbsp; F = NO</p>
        ","j","html-keyboard-response","201","2.1.0","384425","J=YES, F=NO","vjt5pkesp7","2","66","78","55","","","","","","","","","watch","bottle","filler","filler","j","true","",""
"null","<p style=""font-size: 50px;"">+</p>","null","html-keyboard-response","202","2.1.0","384725","J=YES, F=NO","vjt5pkesp7","2","66","78","55","","","","","","","","","","","","","","","",""
"null","audio/beep-329314.mp3","null","audio-keyboard-response","203","2.1.0","386208","J=YES, F=NO","vjt5pkesp7","2","66","78","55","","","","","","","","","","","","","","","",""
"null","audio/battle1.wav","null","audio-keyboard-response","204","2.1.0","386608","J=YES, F=NO","vjt5pkesp7","2","66","78","55","","","","","","","","","","","","","","","",""
"433","
          <p id=""word"" style=""font-size: 40px;"">boil</p>
          <p style=""font-size: 16px;"">J = YES &nbsp;&nbsp;&nbsp; F = NO</p>
        ","j","html-keyboard-response","205","2.1.0","387041","J=YES, F=NO","vjt5pkesp7","2","66","78","55","","","","","","","","","boil","battle1","filler","filler","j","true","",""
"null","<p style=""font-size: 50px;"">+</p>","null","html-keyboard-response","206","2.1.0","387341","J=YES, F=NO","vjt5pkesp7","2","66","78","55","","","","","","","","","","","","","","","",""
"null","audio/beep-329314.mp3","null","audio-keyboard-response","207","2.1.0","388841","J=YES, F=NO","vjt5pkesp7","2","66","78","55","","","","","","","","","","","","","","","",""
"null","audio/tunnel.wav","null","audio-keyboard-response","208","2.1.0","389208","J=YES, F=NO","vjt5pkesp7","2","66","78","55","","","","","","","","","","","","","","","",""
"400","
          <p id=""word"" style=""font-size: 40px;"">gred</p>
          <p style=""font-size: 16px;"">J = YES &nbsp;&nbsp;&nbsp; F = NO</p>
        ","j","html-keyboard-response","209","2.1.0","389625","J=YES, F=NO","vjt5pkesp7","2","66","78","55","","","","","","","","","gred","tunnel","pseudoword","pseudoword","f","false","",""
"null","<p style=""font-size: 50px;"">+</p>","null","html-keyboard-response","210","2.1.0","389941","J=YES, F=NO","vjt5pkesp7","2","66","78","55","","","","","","","","","","","","","","","",""
"null","audio/beep-329314.mp3","null","audio-keyboard-response","211","2.1.0","391425","J=YES, F=NO","vjt5pkesp7","2","66","78","55","","","","","","","","","","","","","","","",""
"null","audio/noise1.wav","null","audio-keyboard-response","212","2.1.0","391975","J=YES, F=NO","vjt5pkesp7","2","66","78","55","","","","","","","","","","","","","","","",""
"533","
          <p id=""word"" style=""font-size: 40px;"">build</p>
          <p style=""font-size: 16px;"">J = YES &nbsp;&nbsp;&nbsp; F = NO</p>
        ","j","html-keyboard-response","213","2.1.0","392525","J=YES, F=NO","vjt5pkesp7","2","66","78","55","","","","","","","","","build","noise1","unrelated","experimental","j","true","",""
"null","<p style=""font-size: 50px;"">+</p>","null","html-keyboard-response","214","2.1.0","392808","J=YES, F=NO","vjt5pkesp7","2","66","78","55","","","","","","","","","","","","","","","",""
"null","audio/beep-329314.mp3","null","audio-keyboard-response","215","2.1.0","394308","J=YES, F=NO","vjt5pkesp7","2","66","78","55","","","","","","","","","","","","","","","",""
"null","audio/size1.wav","null","audio-keyboard-response","216","2.1.0","395008","J=YES, F=NO","vjt5pkesp7","2","66","78","55","","","","","","","","","","","","","","","",""
"517","
          <p id=""word"" style=""font-size: 40px;"">clear</p>
          <p style=""font-size: 16px;"">J = YES &nbsp;&nbsp;&nbsp; F = NO</p>
        ","j","html-keyboard-response","217","2.1.0","395525","J=YES, F=NO","vjt5pkesp7","2","66","78","55","","","","","","","","","clear","size1","unrelated","experimental","j","true","",""
"null","<p style=""font-size: 50px;"">+</p>","null","html-keyboard-response","218","2.1.0","395825","J=YES, F=NO","vjt5pkesp7","2","66","78","55","","","","","","","","","","","","","","","",""
"null","audio/beep-329314.mp3","null","audio-keyboard-response","219","2.1.0","397308","J=YES, F=NO","vjt5pkesp7","2","66","78","55","","","","","","","","","","","","","","","",""
"null","audio/van1.wav","null","audio-keyboard-response","220","2.1.0","397742","J=YES, F=NO","vjt5pkesp7","2","66","78","55","","","","","","","","","","","","","","","",""
"517","
          <p id=""word"" style=""font-size: 40px;"">push</p>
          <p style=""font-size: 16px;"">J = YES &nbsp;&nbsp;&nbsp; F = NO</p>
        ","j","html-keyboard-response","221","2.1.0","398258","J=YES, F=NO","vjt5pkesp7","2","66","78","55","","","","","","","","","push","van1","filler","filler","j","true","",""
"null","<p style=""font-size: 50px;"">+</p>","null","html-keyboard-response","222","2.1.0","398558","J=YES, F=NO","vjt5pkesp7","2","66","78","55","","","","","","","","","","","","","","","",""
"null","audio/beep-329314.mp3","null","audio-keyboard-response","223","2.1.0","400042","J=YES, F=NO","vjt5pkesp7","2","66","78","55","","","","","","","","","","","","","","","",""
"null","audio/arm.wav","null","audio-keyboard-response","224","2.1.0","400542","J=YES, F=NO","vjt5pkesp7","2","66","78","55","","","","","","","","","","","","","","","",""
"650","
          <p id=""word"" style=""font-size: 40px;"">fold</p>
          <p style=""font-size: 16px;"">J = YES &nbsp;&nbsp;&nbsp; F = NO</p>
        ","f","html-keyboard-response","225","2.1.0","401192","J=YES, F=NO","vjt5pkesp7","2","66","78","55","","","","","","","","","fold","arm","filler","filler","j","false","",""
"null","<p style=""font-size: 50px;"">+</p>","null","html-keyboard-response","226","2.1.0","401492","J=YES, F=NO","vjt5pkesp7","2","66","78","55","","","","","","","","","","","","","","","",""
"null","audio/beep-329314.mp3","null","audio-keyboard-response","227","2.1.0","402992","J=YES, F=NO","vjt5pkesp7","2","66","78","55","","","","","","","","","","","","","","","",""
"null","audio/pine.wav","null","audio-keyboard-response","228","2.1.0","403425","J=YES, F=NO","vjt5pkesp7","2","66","78","55","","","","","","","","","","","","","","","",""
"617","
          <p id=""word"" style=""font-size: 40px;"">weave</p>
          <p style=""font-size: 16px;"">J = YES &nbsp;&nbsp;&nbsp; F = NO</p>
        ","j","html-keyboard-response","229","2.1.0","404042","J=YES, F=NO","vjt5pkesp7","2","66","78","55","","","","","","","","","weave","pine","unrelated","experimental","j","true","",""
"3467","<p>Excellent! You have finished block 1 of 8.</p>
                     <p>Feel free to take a 30 second break.</p>
                     <p>Press any key when you're ready to continue.</p>"," ","html-keyboard-response","230","2.1.0","407525","J=YES, F=NO","vjt5pkesp7","2","66","78","55","","","","","","","","","","","","","","","",""
"1283","<p>Starting main block 2 of 8. Press any key to continue.</p>"," ","html-keyboard-response","231","2.1.0","408809","J=YES, F=NO","vjt5pkesp7","2","66","78","55","","","","","","","","","","","","","","","",""
"null","<p style=""font-size: 50px;"">+</p>","null","html-keyboard-response","232","2.1.0","409125","J=YES, F=NO","vjt5pkesp7","2","66","78","55","","","","","","","","","","","","","","","",""
"null","audio/beep-329314.mp3","null","audio-keyboard-response","233","2.1.0","410592","J=YES, F=NO","vjt5pkesp7","2","66","78","55","","","","","","","","","","","","","","","",""
"null","audio/menu.wav","null","audio-keyboard-response","234","2.1.0","411109","J=YES, F=NO","vjt5pkesp7","2","66","78","55","","","","","","","","","","","","","","","",""
"667","
          <p id=""word"" style=""font-size: 40px;"">slice</p>
          <p style=""font-size: 16px;"">J = YES &nbsp;&nbsp;&nbsp; F = NO</p>
        ","j","html-keyboard-response","235","2.1.0","411792","J=YES, F=NO","vjt5pkesp7","2","66","78","55","","","","","","","","","slice","menu","filler","filler","j","true","",""
"null","<p style=""font-size: 50px;"">+</p>","null","html-keyboard-response","236","2.1.0","412092","J=YES, F=NO","vjt5pkesp7","2","66","78","55","","","","","","","","","","","","","","","",""
"null","audio/beep-329314.mp3","null","audio-keyboard-response","237","2.1.0","413575","J=YES, F=NO","vjt5pkesp7","2","66","78","55","","","","","","","","","","","","","","","",""
"null","audio/flaw.wav","null","audio-keyboard-response","238","2.1.0","414159","J=YES, F=NO","vjt5pkesp7","2","66","78","55","","","","","","","","","","","","","","","",""
"500","
          <p id=""word"" style=""font-size: 40px;"">hide</p>
          <p style=""font-size: 16px;"">J = YES &nbsp;&nbsp;&nbsp; F = NO</p>
        ","j","html-keyboard-response","239","2.1.0","414659","J=YES, F=NO","vjt5pkesp7","2","66","78","55","","","","","","","","","hide","flaw","metaphor","experimental","j","true","",""
"null","<p style=""font-size: 50px;"">+</p>","null","html-keyboard-response","240","2.1.0","414959","J=YES, F=NO","vjt5pkesp7","2","66","78","55","","","","","","","","","","","","","","","",""
"null","audio/beep-329314.mp3","null","audio-keyboard-response","241","2.1.0","416442","J=YES, F=NO","vjt5pkesp7","2","66","78","55","","","","","","","","","","","","","","","",""
"null","audio/cash1.wav","null","audio-keyboard-response","242","2.1.0","416942","J=YES, F=NO","vjt5pkesp7","2","66","78","55","","","","","","","","","","","","","","","",""
"700","
          <p id=""word"" style=""font-size: 40px;"">splear</p>
          <p style=""font-size: 16px;"">J = YES &nbsp;&nbsp;&nbsp; F = NO</p>
        ","f","html-keyboard-response","243","2.1.0","417625","J=YES, F=NO","vjt5pkesp7","2","66","78","55","","","","","","","","","splear","cash1","pseudoword","pseudoword","f","true","",""
"null","<p style=""font-size: 50px;"">+</p>","null","html-keyboard-response","244","2.1.0","417942","J=YES, F=NO","vjt5pkesp7","2","66","78","55","","","","","","","","","","","","","","","",""
"null","audio/beep-329314.mp3","null","audio-keyboard-response","245","2.1.0","419425","J=YES, F=NO","vjt5pkesp7","2","66","78","55","","","","","","","","","","","","","","","",""
"null","audio/corpse1.wav","null","audio-keyboard-response","246","2.1.0","420025","J=YES, F=NO","vjt5pkesp7","2","66","78","55","","","","","","","","","","","","","","","",""
"650","
          <p id=""word"" style=""font-size: 40px;"">bury</p>
          <p style=""font-size: 16px;"">J = YES &nbsp;&nbsp;&nbsp; F = NO</p>
        ","j","html-keyboard-response","247","2.1.0","420659","J=YES, F=NO","vjt5pkesp7","2","66","78","55","","","","","","","","","bury","corpse1","literal","experimental","j","true","",""
"null","<p style=""font-size: 50px;"">+</p>","null","html-keyboard-response","248","2.1.0","420975","J=YES, F=NO","vjt5pkesp7","2","66","78","55","","","","","","","","","","","","","","","",""
"null","audio/beep-329314.mp3","null","audio-keyboard-response","249","2.1.0","422475","J=YES, F=NO","vjt5pkesp7","2","66","78","55","","","","","","","","","","","","","","","",""
"null","audio/mouth1.wav","null","audio-keyboard-response","250","2.1.0","422992","J=YES, F=NO","vjt5pkesp7","2","66","78","55","","","","","","","","","","","","","","","",""
"617","
          <p id=""word"" style=""font-size: 40px;"">spolial</p>
          <p style=""font-size: 16px;"">J = YES &nbsp;&nbsp;&nbsp; F = NO</p>
        ","f","html-keyboard-response","251","2.1.0","423609","J=YES, F=NO","vjt5pkesp7","2","66","78","55","","","","","","","","","spolial","mouth1","pseudoword","pseudoword","f","true","",""
"null","<p style=""font-size: 50px;"">+</p>","null","html-keyboard-response","252","2.1.0","423925","J=YES, F=NO","vjt5pkesp7","2","66","78","55","","","","","","","","","","","","","","","",""
"null","audio/beep-329314.mp3","null","audio-keyboard-response","253","2.1.0","425409","J=YES, F=NO","vjt5pkesp7","2","66","78","55","","","","","","","","","","","","","","","",""
"null","audio/life1.wav","null","audio-keyboard-response","254","2.1.0","425909","J=YES, F=NO","vjt5pkesp7","2","66","78","55","","","","","","","","","","","","","","","",""
"717","
          <p id=""word"" style=""font-size: 40px;"">flimch</p>
          <p style=""font-size: 16px;"">J = YES &nbsp;&nbsp;&nbsp; F = NO</p>
        ","j","html-keyboard-response","255","2.1.0","426626","J=YES, F=NO","vjt5pkesp7","2","66","78","55","","","","","","","","","flimch","life1","pseudoword","pseudoword","f","false","",""
"null","<p style=""font-size: 50px;"">+</p>","null","html-keyboard-response","256","2.1.0","426942","J=YES, F=NO","vjt5pkesp7","2","66","78","55","","","","","","","","","","","","","","","",""
"null","audio/beep-329314.mp3","null","audio-keyboard-response","257","2.1.0","428442","J=YES, F=NO","vjt5pkesp7","2","66","78","55","","","","","","","","","","","","","","","",""
"null","audio/pine.wav","null","audio-keyboard-response","258","2.1.0","428892","J=YES, F=NO","vjt5pkesp7","2","66","78","55","","","","","","","","","","","","","","","",""
"767","
          <p id=""word"" style=""font-size: 40px;"">crebble</p>
          <p style=""font-size: 16px;"">J = YES &nbsp;&nbsp;&nbsp; F = NO</p>
        ","f","html-keyboard-response","259","2.1.0","429642","J=YES, F=NO","vjt5pkesp7","2","66","78","55","","","","","","","","","crebble","pine","pseudoword","pseudoword","f","true","",""
"null","<p style=""font-size: 50px;"">+</p>","null","html-keyboard-response","260","2.1.0","429942","J=YES, F=NO","vjt5pkesp7","2","66","78","55","","","","","","","","","","","","","","","",""
"null","audio/beep-329314.mp3","null","audio-keyboard-response","261","2.1.0","431426","J=YES, F=NO","vjt5pkesp7","2","66","78","55","","","","","","","","","","","","","","","",""
"null","audio/lion1.wav","null","audio-keyboard-response","262","2.1.0","431926","J=YES, F=NO","vjt5pkesp7","2","66","78","55","","","","","","","","","","","","","","","",""
"600","
          <p id=""word"" style=""font-size: 40px;"">wrestle</p>
          <p style=""font-size: 16px;"">J = YES &nbsp;&nbsp;&nbsp; F = NO</p>
        ","j","html-keyboard-response","263","2.1.0","432526","J=YES, F=NO","vjt5pkesp7","2","66","78","55","","","","","","","","","wrestle","lion1","literal","experimental","j","true","",""
"null","<p style=""font-size: 50px;"">+</p>","null","html-keyboard-response","264","2.1.0","432826","J=YES, F=NO","vjt5pkesp7","2","66","78","55","","","","","","","","","","","","","","","",""
"null","audio/beep-329314.mp3","null","audio-keyboard-response","265","2.1.0","434309","J=YES, F=NO","vjt5pkesp7","2","66","78","55","","","","","","","","","","","","","","","",""
"null","audio/age1.wav","null","audio-keyboard-response","266","2.1.0","434809","J=YES, F=NO","vjt5pkesp7","2","66","78","55","","","","","","","","","","","","","","","",""
"817","
          <p id=""word"" style=""font-size: 40px;"">bake</p>
          <p style=""font-size: 16px;"">J = YES &nbsp;&nbsp;&nbsp; F = NO</p>
        ","j","html-keyboard-response","267","2.1.0","435626","J=YES, F=NO","vjt5pkesp7","2","66","78","55","","","","","","","","","bake","age1","filler","filler","j","true","",""
"null","<p style=""font-size: 50px;"">+</p>","null","html-keyboard-response","268","2.1.0","435942","J=YES, F=NO","vjt5pkesp7","2","66","78","55","","","","","","","","","","","","","","","",""
"null","audio/beep-329314.mp3","null","audio-keyboard-response","269","2.1.0","437426","J=YES, F=NO","vjt5pkesp7","2","66","78","55","","","","","","","","","","","","","","","",""
"null","audio/roof1.wav","null","audio-keyboard-response","270","2.1.0","437909","J=YES, F=NO","vjt5pkesp7","2","66","78","55","","","","","","","","","","","","","","","",""
"733","
          <p id=""word"" style=""font-size: 40px;"">wronb</p>
          <p style=""font-size: 16px;"">J = YES &nbsp;&nbsp;&nbsp; F = NO</p>
        ","f","html-keyboard-response","271","2.1.0","438642","J=YES, F=NO","vjt5pkesp7","2","66","78","55","","","","","","","","","wronb","roof1","pseudoword","pseudoword","f","true","",""
"null","<p style=""font-size: 50px;"">+</p>","null","html-keyboard-response","272","2.1.0","438942","J=YES, F=NO","vjt5pkesp7","2","66","78","55","","","","","","","","","","","","","","","",""
"null","audio/beep-329314.mp3","null","audio-keyboard-response","273","2.1.0","440426","J=YES, F=NO","vjt5pkesp7","2","66","78","55","","","","","","","","","","","","","","","",""
"null","audio/topic.wav","null","audio-keyboard-response","274","2.1.0","440959","J=YES, F=NO","vjt5pkesp7","2","66","78","55","","","","","","","","","","","","","","","",""
"550","
          <p id=""word"" style=""font-size: 40px;"">approach</p>
          <p style=""font-size: 16px;"">J = YES &nbsp;&nbsp;&nbsp; F = NO</p>
        ","j","html-keyboard-response","275","2.1.0","441509","J=YES, F=NO","vjt5pkesp7","2","66","78","55","","","","","","","","","approach","topic","metaphor","experimental","j","true","",""
"null","<p style=""font-size: 50px;"">+</p>","null","html-keyboard-response","276","2.1.0","441826","J=YES, F=NO","vjt5pkesp7","2","66","78","55","","","","","","","","","","","","","","","",""
"null","audio/beep-329314.mp3","null","audio-keyboard-response","277","2.1.0","443293","J=YES, F=NO","vjt5pkesp7","2","66","78","55","","","","","","","","","","","","","","","",""
"null","audio/bomb1.wav","null","audio-keyboard-response","278","2.1.0","443626","J=YES, F=NO","vjt5pkesp7","2","66","78","55","","","","","","","","","","","","","","","",""
"500","
          <p id=""word"" style=""font-size: 40px;"">clean</p>
          <p style=""font-size: 16px;"">J = YES &nbsp;&nbsp;&nbsp; F = NO</p>
        ","j","html-keyboard-response","279","2.1.0","444126","J=YES, F=NO","vjt5pkesp7","2","66","78","55","","","","","","","","","clean","bomb1","filler","filler","j","true","",""
"null","<p style=""font-size: 50px;"">+</p>","null","html-keyboard-response","280","2.1.0","444443","J=YES, F=NO","vjt5pkesp7","2","66","78","55","","","","","","","","","","","","","","","",""
"null","audio/beep-329314.mp3","null","audio-keyboard-response","281","2.1.0","445926","J=YES, F=NO","vjt5pkesp7","2","66","78","55","","","","","","","","","","","","","","","",""
"null","audio/holiday1.wav","null","audio-keyboard-response","282","2.1.0","446509","J=YES, F=NO","vjt5pkesp7","2","66","78","55","","","","","","","","","","","","","","","",""
"650","
          <p id=""word"" style=""font-size: 40px;"">drivets</p>
          <p style=""font-size: 16px;"">J = YES &nbsp;&nbsp;&nbsp; F = NO</p>
        ","f","html-keyboard-response","283","2.1.0","447143","J=YES, F=NO","vjt5pkesp7","2","66","78","55","","","","","","","","","drivets","holiday1","pseudoword","pseudoword","f","true","",""
"null","<p style=""font-size: 50px;"">+</p>","null","html-keyboard-response","284","2.1.0","447443","J=YES, F=NO","vjt5pkesp7","2","66","78","55","","","","","","","","","","","","","","","",""
"null","audio/beep-329314.mp3","null","audio-keyboard-response","285","2.1.0","448926","J=YES, F=NO","vjt5pkesp7","2","66","78","55","","","","","","","","","","","","","","","",""
"null","audio/hotel1.wav","null","audio-keyboard-response","286","2.1.0","449493","J=YES, F=NO","vjt5pkesp7","2","66","78","55","","","","","","","","","","","","","","","",""
"800","
          <p id=""word"" style=""font-size: 40px;"">flanter</p>
          <p style=""font-size: 16px;"">J = YES &nbsp;&nbsp;&nbsp; F = NO</p>
        ","j","html-keyboard-response","287","2.1.0","450293","J=YES, F=NO","vjt5pkesp7","2","66","78","55","","","","","","","","","flanter","hotel1","pseudoword","pseudoword","f","false","",""
"null","<p style=""font-size: 50px;"">+</p>","null","html-keyboard-response","288","2.1.0","450593","J=YES, F=NO","vjt5pkesp7","2","66","78","55","","","","","","","","","","","","","","","",""
"null","audio/beep-329314.mp3","null","audio-keyboard-response","289","2.1.0","452076","J=YES, F=NO","vjt5pkesp7","2","66","78","55","","","","","","","","","","","","","","","",""
"null","audio/survey1.wav","null","audio-keyboard-response","290","2.1.0","452776","J=YES, F=NO","vjt5pkesp7","2","66","78","55","","","","","","","","","","","","","","","",""
"633","
          <p id=""word"" style=""font-size: 40px;"">imploth</p>
          <p style=""font-size: 16px;"">J = YES &nbsp;&nbsp;&nbsp; F = NO</p>
        ","f","html-keyboard-response","291","2.1.0","453393","J=YES, F=NO","vjt5pkesp7","2","66","78","55","","","","","","","","","imploth","survey1","pseudoword","pseudoword","f","true","",""
"null","<p style=""font-size: 50px;"">+</p>","null","html-keyboard-response","292","2.1.0","453693","J=YES, F=NO","vjt5pkesp7","2","66","78","55","","","","","","","","","","","","","","","",""
"null","audio/beep-329314.mp3","null","audio-keyboard-response","293","2.1.0","455193","J=YES, F=NO","vjt5pkesp7","2","66","78","55","","","","","","","","","","","","","","","",""
"null","audio/noise1.wav","null","audio-keyboard-response","294","2.1.0","455743","J=YES, F=NO","vjt5pkesp7","2","66","78","55","","","","","","","","","","","","","","","",""
"650","
          <p id=""word"" style=""font-size: 40px;"">slintered</p>
          <p style=""font-size: 16px;"">J = YES &nbsp;&nbsp;&nbsp; F = NO</p>
        ","f","html-keyboard-response","295","2.1.0","456409","J=YES, F=NO","vjt5pkesp7","2","66","78","55","","","","","","","","","slintered","noise1","pseudoword","pseudoword","f","true","",""
"1367","<p>Excellent! You have finished block 2 of 8.</p>
                     <p>Feel free to take a 30 second break.</p>
                     <p>Press any key when you're ready to continue.</p>"," ","html-keyboard-response","296","2.1.0","457759","J=YES, F=NO","vjt5pkesp7","2","66","78","55","","","","","","","","","","","","","","","",""
"467","<p>Starting main block 3 of 8. Press any key to continue.</p>"," ","html-keyboard-response","297","2.1.0","458226","J=YES, F=NO","vjt5pkesp7","2","66","78","55","","","","","","","","","","","","","","","",""
"null","<p style=""font-size: 50px;"">+</p>","null","html-keyboard-response","298","2.1.0","458543","J=YES, F=NO","vjt5pkesp7","2","66","78","55","","","","","","","","","","","","","","","",""
"null","audio/beep-329314.mp3","null","audio-keyboard-response","299","2.1.0","460026","J=YES, F=NO","vjt5pkesp7","2","66","78","55","","","","","","","","","","","","","","","",""
"null","audio/arm.wav","null","audio-keyboard-response","300","2.1.0","460526","J=YES, F=NO","vjt5pkesp7","2","66","78","55","","","","","","","","","","","","","","","",""
"567","
          <p id=""word"" style=""font-size: 40px;"">pigne</p>
          <p style=""font-size: 16px;"">J = YES &nbsp;&nbsp;&nbsp; F = NO</p>
        ","f","html-keyboard-response","301","2.1.0","461076","J=YES, F=NO","vjt5pkesp7","2","66","78","55","","","","","","","","","pigne","arm","pseudoword","pseudoword","f","true","",""
"null","<p style=""font-size: 50px;"">+</p>","null","html-keyboard-response","302","2.1.0","461376","J=YES, F=NO","vjt5pkesp7","2","66","78","55","","","","","","","","","","","","","","","",""
"null","audio/beep-329314.mp3","null","audio-keyboard-response","303","2.1.0","462860","J=YES, F=NO","vjt5pkesp7","2","66","78","55","","","","","","","","","","","","","","","",""
"null","audio/scar.wav","null","audio-keyboard-response","304","2.1.0","463410","J=YES, F=NO","vjt5pkesp7","2","66","78","55","","","","","","","","","","","","","","","",""
"600","
          <p id=""word"" style=""font-size: 40px;"">adelineate</p>
          <p style=""font-size: 16px;"">J = YES &nbsp;&nbsp;&nbsp; F = NO</p>
        ","j","html-keyboard-response","305","2.1.0","463993","J=YES, F=NO","vjt5pkesp7","2","66","78","55","","","","","","","","","adelineate","scar","pseudoword","pseudoword","f","false","",""
"null","<p style=""font-size: 50px;"">+</p>","null","html-keyboard-response","306","2.1.0","464310","J=YES, F=NO","vjt5pkesp7","2","66","78","55","","","","","","","","","","","","","","","",""
"null","audio/beep-329314.mp3","null","audio-keyboard-response","307","2.1.0","465793","J=YES, F=NO","vjt5pkesp7","2","66","78","55","","","","","","","","","","","","","","","",""
"null","audio/neck.wav","null","audio-keyboard-response","308","2.1.0","466276","J=YES, F=NO","vjt5pkesp7","2","66","78","55","","","","","","","","","","","","","","","",""
"583","
          <p id=""word"" style=""font-size: 40px;"">share</p>
          <p style=""font-size: 16px;"">J = YES &nbsp;&nbsp;&nbsp; F = NO</p>
        ","j","html-keyboard-response","309","2.1.0","466860","J=YES, F=NO","vjt5pkesp7","2","66","78","55","","","","","","","","","share","neck","unrelated","experimental","j","true","",""
"null","<p style=""font-size: 50px;"">+</p>","null","html-keyboard-response","310","2.1.0","467176","J=YES, F=NO","vjt5pkesp7","2","66","78","55","","","","","","","","","","","","","","","",""
"null","audio/beep-329314.mp3","null","audio-keyboard-response","311","2.1.0","468643","J=YES, F=NO","vjt5pkesp7","2","66","78","55","","","","","","","","","","","","","","","",""
"null","audio/trust.wav","null","audio-keyboard-response","312","2.1.0","469226","J=YES, F=NO","vjt5pkesp7","2","66","78","55","","","","","","","","","","","","","","","",""
"383","
          <p id=""word"" style=""font-size: 40px;"">swint</p>
          <p style=""font-size: 16px;"">J = YES &nbsp;&nbsp;&nbsp; F = NO</p>
        ","j","html-keyboard-response","313","2.1.0","469610","J=YES, F=NO","vjt5pkesp7","2","66","78","55","","","","","","","","","swint","trust","pseudoword","pseudoword","f","false","",""
"null","<p style=""font-size: 50px;"">+</p>","null","html-keyboard-response","314","2.1.0","469910","J=YES, F=NO","vjt5pkesp7","2","66","78","55","","","","","","","","","","","","","","","",""
"null","audio/beep-329314.mp3","null","audio-keyboard-response","315","2.1.0","471393","J=YES, F=NO","vjt5pkesp7","2","66","78","55","","","","","","","","","","","","","","","",""
"null","audio/camera1.wav","null","audio-keyboard-response","316","2.1.0","471843","J=YES, F=NO","vjt5pkesp7","2","66","78","55","","","","","","","","","","","","","","","",""
"433","
          <p id=""word"" style=""font-size: 40px;"">bring</p>
          <p style=""font-size: 16px;"">J = YES &nbsp;&nbsp;&nbsp; F = NO</p>
        ","j","html-keyboard-response","317","2.1.0","472276","J=YES, F=NO","vjt5pkesp7","2","66","78","55","","","","","","","","","bring","camera1","literal","experimental","j","true","",""
"null","<p style=""font-size: 50px;"">+</p>","null","html-keyboard-response","318","2.1.0","472576","J=YES, F=NO","vjt5pkesp7","2","66","78","55","","","","","","","","","","","","","","","",""
"null","audio/beep-329314.mp3","null","audio-keyboard-response","319","2.1.0","474060","J=YES, F=NO","vjt5pkesp7","2","66","78","55","","","","","","","","","","","","","","","",""
"null","audio/breath.wav","null","audio-keyboard-response","320","2.1.0","474560","J=YES, F=NO","vjt5pkesp7","2","66","78","55","","","","","","","","","","","","","","","",""
"433","
          <p id=""word"" style=""font-size: 40px;"">construct</p>
          <p style=""font-size: 16px;"">J = YES &nbsp;&nbsp;&nbsp; F = NO</p>
        ","j","html-keyboard-response","321","2.1.0","474993","J=YES, F=NO","vjt5pkesp7","2","66","78","55","","","","","","","","","construct","breath","unrelated","experimental","j","true","",""
"null","<p style=""font-size: 50px;"">+</p>","null","html-keyboard-response","322","2.1.0","475310","J=YES, F=NO","vjt5pkesp7","2","66","78","55","","","","","","","","","","","","","","","",""
"null","audio/beep-329314.mp3","null","audio-keyboard-response","323","2.1.0","476777","J=YES, F=NO","vjt5pkesp7","2","66","78","55","","","","","","","","","","","","","","","",""
"null","audio/meal.wav","null","audio-keyboard-response","324","2.1.0","477177","J=YES, F=NO","vjt5pkesp7","2","66","78","55","","","","","","","","","","","","","","","",""
"433","
          <p id=""word"" style=""font-size: 40px;"">gallite</p>
          <p style=""font-size: 16px;"">J = YES &nbsp;&nbsp;&nbsp; F = NO</p>
        ","j","html-keyboard-response","325","2.1.0","477610","J=YES, F=NO","vjt5pkesp7","2","66","78","55","","","","","","","","","gallite","meal","pseudoword","pseudoword","f","false","",""
"null","<p style=""font-size: 50px;"">+</p>","null","html-keyboard-response","326","2.1.0","477927","J=YES, F=NO","vjt5pkesp7","2","66","78","55","","","","","","","","","","","","","","","",""
"null","audio/beep-329314.mp3","null","audio-keyboard-response","327","2.1.0","479393","J=YES, F=NO","vjt5pkesp7","2","66","78","55","","","","","","","","","","","","","","","",""
"null","audio/ship.wav","null","audio-keyboard-response","328","2.1.0","479893","J=YES, F=NO","vjt5pkesp7","2","66","78","55","","","","","","","","","","","","","","","",""
"400","
          <p id=""word"" style=""font-size: 40px;"">scrap</p>
          <p style=""font-size: 16px;"">J = YES &nbsp;&nbsp;&nbsp; F = NO</p>
        ","j","html-keyboard-response","329","2.1.0","480310","J=YES, F=NO","vjt5pkesp7","2","66","78","55","","","","","","","","","scrap","ship","literal","experimental","j","true","",""
"null","<p style=""font-size: 50px;"">+</p>","null","html-keyboard-response","330","2.1.0","480610","J=YES, F=NO","vjt5pkesp7","2","66","78","55","","","","","","","","","","","","","","","",""
"null","audio/beep-329314.mp3","null","audio-keyboard-response","331","2.1.0","482077","J=YES, F=NO","vjt5pkesp7","2","66","78","55","","","","","","","","","","","","","","","",""
"null","audio/mind.wav","null","audio-keyboard-response","332","2.1.0","482610","J=YES, F=NO","vjt5pkesp7","2","66","78","55","","","","","","","","","","","","","","","",""
"550","
          <p id=""word"" style=""font-size: 40px;"">crainate</p>
          <p style=""font-size: 16px;"">J = YES &nbsp;&nbsp;&nbsp; F = NO</p>
        ","f","html-keyboard-response","333","2.1.0","483160","J=YES, F=NO","vjt5pkesp7","2","66","78","55","","","","","","","","","crainate","mind","pseudoword","pseudoword","f","true","",""
"null","<p style=""font-size: 50px;"">+</p>","null","html-keyboard-response","334","2.1.0","483460","J=YES, F=NO","vjt5pkesp7","2","66","78","55","","","","","","","","","","","","","","","",""
"null","audio/beep-329314.mp3","null","audio-keyboard-response","335","2.1.0","484943","J=YES, F=NO","vjt5pkesp7","2","66","78","55","","","","","","","","","","","","","","","",""
"null","audio/show.wav","null","audio-keyboard-response","336","2.1.0","485443","J=YES, F=NO","vjt5pkesp7","2","66","78","55","","","","","","","","","","","","","","","",""
"433","
          <p id=""word"" style=""font-size: 40px;"">smark</p>
          <p style=""font-size: 16px;"">J = YES &nbsp;&nbsp;&nbsp; F = NO</p>
        ","j","html-keyboard-response","337","2.1.0","485860","J=YES, F=NO","vjt5pkesp7","2","66","78","55","","","","","","","","","smark","show","pseudoword","pseudoword","f","false","",""
"null","<p style=""font-size: 50px;"">+</p>","null","html-keyboard-response","338","2.1.0","486177","J=YES, F=NO","vjt5pkesp7","2","66","78","55","","","","","","","","","","","","","","","",""
"null","audio/beep-329314.mp3","null","audio-keyboard-response","339","2.1.0","487660","J=YES, F=NO","vjt5pkesp7","2","66","78","55","","","","","","","","","","","","","","","",""
"null","audio/pig.wav","null","audio-keyboard-response","340","2.1.0","487993","J=YES, F=NO","vjt5pkesp7","2","66","78","55","","","","","","","","","","","","","","","",""
"650","
          <p id=""word"" style=""font-size: 40px;"">tirlike</p>
          <p style=""font-size: 16px;"">J = YES &nbsp;&nbsp;&nbsp; F = NO</p>
        ","f","html-keyboard-response","341","2.1.0","488643","J=YES, F=NO","vjt5pkesp7","2","66","78","55","","","","","","","","","tirlike","pig","pseudoword","pseudoword","f","true","",""
"null","<p style=""font-size: 50px;"">+</p>","null","html-keyboard-response","342","2.1.0","488960","J=YES, F=NO","vjt5pkesp7","2","66","78","55","","","","","","","","","","","","","","","",""
"null","audio/beep-329314.mp3","null","audio-keyboard-response","343","2.1.0","490443","J=YES, F=NO","vjt5pkesp7","2","66","78","55","","","","","","","","","","","","","","","",""
"null","audio/cinema1.wav","null","audio-keyboard-response","344","2.1.0","490993","J=YES, F=NO","vjt5pkesp7","2","66","78","55","","","","","","","","","","","","","","","",""
"450","
          <p id=""word"" style=""font-size: 40px;"">murple</p>
          <p style=""font-size: 16px;"">J = YES &nbsp;&nbsp;&nbsp; F = NO</p>
        ","j","html-keyboard-response","345","2.1.0","491444","J=YES, F=NO","vjt5pkesp7","2","66","78","55","","","","","","","","","murple","cinema1","pseudoword","pseudoword","f","false","",""
"null","<p style=""font-size: 50px;"">+</p>","null","html-keyboard-response","346","2.1.0","491760","J=YES, F=NO","vjt5pkesp7","2","66","78","55","","","","","","","","","","","","","","","",""
"null","audio/beep-329314.mp3","null","audio-keyboard-response","347","2.1.0","493244","J=YES, F=NO","vjt5pkesp7","2","66","78","55","","","","","","","","","","","","","","","",""
"null","audio/winter.wav","null","audio-keyboard-response","348","2.1.0","493760","J=YES, F=NO","vjt5pkesp7","2","66","78","55","","","","","","","","","","","","","","","",""
"533","
          <p id=""word"" style=""font-size: 40px;"">straven</p>
          <p style=""font-size: 16px;"">J = YES &nbsp;&nbsp;&nbsp; F = NO</p>
        ","j","html-keyboard-response","349","2.1.0","494294","J=YES, F=NO","vjt5pkesp7","2","66","78","55","","","","","","","","","straven","winter","pseudoword","pseudoword","f","false","",""
"null","<p style=""font-size: 50px;"">+</p>","null","html-keyboard-response","350","2.1.0","494594","J=YES, F=NO","vjt5pkesp7","2","66","78","55","","","","","","","","","","","","","","","",""
"null","audio/beep-329314.mp3","null","audio-keyboard-response","351","2.1.0","496077","J=YES, F=NO","vjt5pkesp7","2","66","78","55","","","","","","","","","","","","","","","",""
"null","audio/foe1.wav","null","audio-keyboard-response","352","2.1.0","496527","J=YES, F=NO","vjt5pkesp7","2","66","78","55","","","","","","","","","","","","","","","",""
"683","
          <p id=""word"" style=""font-size: 40px;"">creth</p>
          <p style=""font-size: 16px;"">J = YES &nbsp;&nbsp;&nbsp; F = NO</p>
        ","f","html-keyboard-response","353","2.1.0","497210","J=YES, F=NO","vjt5pkesp7","2","66","78","55","","","","","","","","","creth","foe1","pseudoword","pseudoword","f","true","",""
"null","<p style=""font-size: 50px;"">+</p>","null","html-keyboard-response","354","2.1.0","497527","J=YES, F=NO","vjt5pkesp7","2","66","78","55","","","","","","","","","","","","","","","",""
"null","audio/beep-329314.mp3","null","audio-keyboard-response","355","2.1.0","498994","J=YES, F=NO","vjt5pkesp7","2","66","78","55","","","","","","","","","","","","","","","",""
"null","audio/stain.wav","null","audio-keyboard-response","356","2.1.0","499610","J=YES, F=NO","vjt5pkesp7","2","66","78","55","","","","","","","","","","","","","","","",""
"683","
          <p id=""word"" style=""font-size: 40px;"">rumpsied</p>
          <p style=""font-size: 16px;"">J = YES &nbsp;&nbsp;&nbsp; F = NO</p>
        ","f","html-keyboard-response","357","2.1.0","500310","J=YES, F=NO","vjt5pkesp7","2","66","78","55","","","","","","","","","rumpsied","stain","pseudoword","pseudoword","f","true","",""
"null","<p style=""font-size: 50px;"">+</p>","null","html-keyboard-response","358","2.1.0","500627","J=YES, F=NO","vjt5pkesp7","2","66","78","55","","","","","","","","","","","","","","","",""
"null","audio/beep-329314.mp3","null","audio-keyboard-response","359","2.1.0","502110","J=YES, F=NO","vjt5pkesp7","2","66","78","55","","","","","","","","","","","","","","","",""
"null","audio/story.wav","null","audio-keyboard-response","360","2.1.0","502727","J=YES, F=NO","vjt5pkesp7","2","66","78","55","","","","","","","","","","","","","","","",""
"467","
          <p id=""word"" style=""font-size: 40px;"">cover</p>
          <p style=""font-size: 16px;"">J = YES &nbsp;&nbsp;&nbsp; F = NO</p>
        ","j","html-keyboard-response","361","2.1.0","503210","J=YES, F=NO","vjt5pkesp7","2","66","78","55","","","","","","","","","cover","story","metaphor","experimental","j","true","",""
"1267","<p>Excellent! You have finished block 3 of 8.</p>
                     <p>Feel free to take a 30 second break.</p>
                     <p>Press any key when you're ready to continue.</p>"," ","html-keyboard-response","362","2.1.0","504460","J=YES, F=NO","vjt5pkesp7","2","66","78","55","","","","","","","","","","","","","","","",""
"350","<p>Starting main block 4 of 8. Press any key to continue.</p>"," ","html-keyboard-response","363","2.1.0","504810","J=YES, F=NO","vjt5pkesp7","2","66","78","55","","","","","","","","","","","","","","","",""
"null","<p style=""font-size: 50px;"">+</p>","null","html-keyboard-response","364","2.1.0","505110","J=YES, F=NO","vjt5pkesp7","2","66","78","55","","","","","","","","","","","","","","","",""
"null","audio/beep-329314.mp3","null","audio-keyboard-response","365","2.1.0","506610","J=YES, F=NO","vjt5pkesp7","2","66","78","55","","","","","","","","","","","","","","","",""
"null","audio/devil1.wav","null","audio-keyboard-response","366","2.1.0","506977","J=YES, F=NO","vjt5pkesp7","2","66","78","55","","","","","","","","","","","","","","","",""
"400","
          <p id=""word"" style=""font-size: 40px;"">carry</p>
          <p style=""font-size: 16px;"">J = YES &nbsp;&nbsp;&nbsp; F = NO</p>
        ","j","html-keyboard-response","367","2.1.0","507377","J=YES, F=NO","vjt5pkesp7","2","66","78","55","","","","","","","","","carry","devil1","unrelated","experimental","j","true","",""
"null","<p style=""font-size: 50px;"">+</p>","null","html-keyboard-response","368","2.1.0","507694","J=YES, F=NO","vjt5pkesp7","2","66","78","55","","","","","","","","","","","","","","","",""
"null","audio/beep-329314.mp3","null","audio-keyboard-response","369","2.1.0","509177","J=YES, F=NO","vjt5pkesp7","2","66","78","55","","","","","","","","","","","","","","","",""
"null","audio/mile1.wav","null","audio-keyboard-response","370","2.1.0","509594","J=YES, F=NO","vjt5pkesp7","2","66","78","55","","","","","","","","","","","","","","","",""
"450","
          <p id=""word"" style=""font-size: 40px;"">writch</p>
          <p style=""font-size: 16px;"">J = YES &nbsp;&nbsp;&nbsp; F = NO</p>
        ","j","html-keyboard-response","371","2.1.0","510061","J=YES, F=NO","vjt5pkesp7","2","66","78","55","","","","","","","","","writch","mile1","pseudoword","pseudoword","f","false","",""
"null","<p style=""font-size: 50px;"">+</p>","null","html-keyboard-response","372","2.1.0","510377","J=YES, F=NO","vjt5pkesp7","2","66","78","55","","","","","","","","","","","","","","","",""
"null","audio/beep-329314.mp3","null","audio-keyboard-response","373","2.1.0","511861","J=YES, F=NO","vjt5pkesp7","2","66","78","55","","","","","","","","","","","","","","","",""
"null","audio/radio1.wav","null","audio-keyboard-response","374","2.1.0","512411","J=YES, F=NO","vjt5pkesp7","2","66","78","55","","","","","","","","","","","","","","","",""
"650","
          <p id=""word"" style=""font-size: 40px;"">blanter</p>
          <p style=""font-size: 16px;"">J = YES &nbsp;&nbsp;&nbsp; F = NO</p>
        ","j","html-keyboard-response","375","2.1.0","513044","J=YES, F=NO","vjt5pkesp7","2","66","78","55","","","","","","","","","blanter","radio1","pseudoword","pseudoword","f","false","",""
"null","<p style=""font-size: 50px;"">+</p>","null","html-keyboard-response","376","2.1.0","513361","J=YES, F=NO","vjt5pkesp7","2","66","78","55","","","","","","","","","","","","","","","",""
"null","audio/beep-329314.mp3","null","audio-keyboard-response","377","2.1.0","514844","J=YES, F=NO","vjt5pkesp7","2","66","78","55","","","","","","","","","","","","","","","",""
"null","audio/beach1.wav","null","audio-keyboard-response","378","2.1.0","515394","J=YES, F=NO","vjt5pkesp7","2","66","78","55","","","","","","","","","","","","","","","",""
"583","
          <p id=""word"" style=""font-size: 40px;"">cut</p>
          <p style=""font-size: 16px;"">J = YES &nbsp;&nbsp;&nbsp; F = NO</p>
        ","j","html-keyboard-response","379","2.1.0","515977","J=YES, F=NO","vjt5pkesp7","2","66","78","55","","","","","","","","","cut","beach1","unrelated","experimental","j","true","",""
"null","<p style=""font-size: 50px;"">+</p>","null","html-keyboard-response","380","2.1.0","516261","J=YES, F=NO","vjt5pkesp7","2","66","78","55","","","","","","","","","","","","","","","",""
"null","audio/beep-329314.mp3","null","audio-keyboard-response","381","2.1.0","517744","J=YES, F=NO","vjt5pkesp7","2","66","78","55","","","","","","","","","","","","","","","",""
"null","audio/planet1.wav","null","audio-keyboard-response","382","2.1.0","518311","J=YES, F=NO","vjt5pkesp7","2","66","78","55","","","","","","","","","","","","","","","",""
"817","
          <p id=""word"" style=""font-size: 40px;"">cratched</p>
          <p style=""font-size: 16px;"">J = YES &nbsp;&nbsp;&nbsp; F = NO</p>
        ","f","html-keyboard-response","383","2.1.0","519127","J=YES, F=NO","vjt5pkesp7","2","66","78","55","","","","","","","","","cratched","planet1","pseudoword","pseudoword","f","true","",""
"null","<p style=""font-size: 50px;"">+</p>","null","html-keyboard-response","384","2.1.0","519444","J=YES, F=NO","vjt5pkesp7","2","66","78","55","","","","","","","","","","","","","","","",""
"null","audio/beep-329314.mp3","null","audio-keyboard-response","385","2.1.0","520927","J=YES, F=NO","vjt5pkesp7","2","66","78","55","","","","","","","","","","","","","","","",""
"null","audio/account1.wav","null","audio-keyboard-response","386","2.1.0","521544","J=YES, F=NO","vjt5pkesp7","2","66","78","55","","","","","","","","","","","","","","","",""
"483","
          <p id=""word"" style=""font-size: 40px;"">open</p>
          <p style=""font-size: 16px;"">J = YES &nbsp;&nbsp;&nbsp; F = NO</p>
        ","j","html-keyboard-response","387","2.1.0","522027","J=YES, F=NO","vjt5pkesp7","2","66","78","55","","","","","","","","","open","account1","metaphor","experimental","j","true","",""
"null","<p style=""font-size: 50px;"">+</p>","null","html-keyboard-response","388","2.1.0","522327","J=YES, F=NO","vjt5pkesp7","2","66","78","55","","","","","","","","","","","","","","","",""
"null","audio/beep-329314.mp3","null","audio-keyboard-response","389","2.1.0","523811","J=YES, F=NO","vjt5pkesp7","2","66","78","55","","","","","","","","","","","","","","","",""
"null","audio/purpose.wav","null","audio-keyboard-response","390","2.1.0","524427","J=YES, F=NO","vjt5pkesp7","2","66","78","55","","","","","","","","","","","","","","","",""
"683","
          <p id=""word"" style=""font-size: 40px;"">whigm</p>
          <p style=""font-size: 16px;"">J = YES &nbsp;&nbsp;&nbsp; F = NO</p>
