"rt","stimulus","response","trial_type","trial_index","plugin_version","time_elapsed","response_mapping","subject_id","list_index","lextale_score","lextale_word_score","lextale_nonword_score","success","timeout","failed_images","failed_audio","failed_video","task","isWord","isDummy","target","prime","prime_type","stimulus_type","correct_response","correct","section","question_order"
"43621","
    <div style=""max-width: 800px; margin: auto; text-align: left;"">
      <h2>STANFORD UNIVERSITY</h2>
      <h3>Research Information Sheet</h3>
      <p><strong>Protocol Director:</strong> Robert Hawkins<br>
      <strong>Protocol Title:</strong> Communication and social cognition in natural audiovisual contexts<br>
      <strong>IRB#:</strong> 77226</p>

      <p><strong>DESCRIPTION:</strong> You are invited to participate in a research study about language and communication. The purpose of the research is to understand how you interact and communicate with other people in naturalistic settings as a fluent English speaker. This research will be conducted through the Prolific platform, including participants from the US, UK, and Canada. If you decide to participate in this research, you will play a communication game in a group with one or more partners.</p>

      <p><strong>TIME INVOLVEMENT:</strong> The task will last the amount of time advertised on Prolific. You are free to withdraw from the study at any time.</p>

      <p><strong>RISKS AND BENEFITS:</strong> You may become frustrated if your partner gets distracted, or experience discomfort if other participants in your group send text that is inappropriate for the task. We ask you to please be respectful of other participants you might be interacting with to mitigate these risks. You may also experience discomfort when being asked to discuss or challenge emotionally salient political beliefs. Study data will be stored securely, in compliance with Stanford University standards, minimizing the risk of confidentiality breach. This study advances our scientific understanding of how people communicate and collaborate in naturalistic settings. This study may lead to further insights about what can go wrong in teamwork, suggest potential interventions to overcome these barriers, and help to develop assistive technologies that collaborate with human partners. We cannot and do not guarantee or promise that you will receive any benefits from this study.</p>

      <p><strong>PAYMENTS:</strong> You will receive payment in the amount advertised on Prolific. If you do not complete this study, you will receive prorated payment based on the time that you have spent. Additionally, you may be eligible for bonus payments as described in the instructions.</p>

      <p><strong>PARTICIPANT’S RIGHTS:</strong> If you have read this form and have decided to participate in this project, please understand your participation is voluntary and you have the right to withdraw your consent or discontinue participation at any time without penalty or loss of benefits to which you are otherwise entitled. The alternative is not to participate. You have the right to refuse to answer particular questions. The results of this research study may be presented at scientific or professional meetings or published in scientific journals. Your individual privacy will be maintained in all published and written data resulting from the study. In accordance with scientific norms, the data from this study may be used or shared with other researchers for future research (after removing personally identifying information) without additional consent from you.</p>

      <p><strong>CONTACT INFORMATION:</strong><br>
      Questions: If you have any questions, concerns or complaints about this research, its procedures, risks and benefits, contact the Protocol Director, Robert Hawkins (<a href=""mailto:rdhawkins@stanford.edu"">rdhawkins@stanford.edu</a>, 217-549-6923).<br>
      Independent Contact: If you are not satisfied with how this study is being conducted, or if you have any concerns, complaints, or general questions about the research or your rights as a participant, please contact the Stanford Institutional Review Board (IRB) to speak to someone independent of the research team at 650-723-2480 or toll free at 1-866-680-2906, or email at <a href=""mailto:irbnon-med@stanford.edu"">irbnon-med@stanford.edu</a>. You can also write to the Stanford IRB, Stanford University, 1705 El Camino Real, Palo Alto, CA 94306.</p>

      <p><strong>Please save or print a copy of this page for your records.</strong></p>
      <p>If you agree to participate in this research, click ""Continue"" below.</p>
    </div>
  ","0","html-button-response","0","2.1.0","43630","F=YES, J=NO","w1o8yvjqxe","2","56","78","35","","","","","","","","","","","","","","","",""
"42519","
    <div style=""max-width: 800px; margin: auto; text-align: left;"">
      <h2>Welcome!</h2>
      <p>Thank you for participating in this study. The experiment consists of three parts:</p>
      <ol>
        <li>An English vocabulary test</li>
        <li>A main task in which you will hear and see words, and decide whether the written word is a real English word</li>
        <li>A brief survey about your background</li>
      </ol>
      <p>Each part will be introduced before it begins.</p>
      <p>Please make sure you are in a quiet environment and can hear audio clearly for the final task.</p>
      <p style=""margin-top: 2em;"">Press any key to begin.</p>
    </div>
  "," ","html-keyboard-response","1","2.1.0","86155","F=YES, J=NO","w1o8yvjqxe","2","56","78","35","","","","","","","","","","","","","","","",""
"","","","preload","2","2.1.0","99703","F=YES, J=NO","w1o8yvjqxe","2","56","78","35","true","false","[]","[]","[]","","","","","","","","","","",""
"10364","
    <div style=""max-width: 800px; margin: auto; text-align: left;"">
      <h2>Part 1: Vocabulary Test</h2>
      <p>You will now complete the first part of the study: a short English vocabulary test.</p>
      <p>This test is called <strong>LexTALE</strong> and helps us get a general sense of your English proficiency.</p>
      <p style=""margin-top: 2em;"">Press any key to continue.</p>
    </div>
  "," ","html-keyboard-response","3","2.1.0","110069","F=YES, J=NO","w1o8yvjqxe","2","56","78","35","","","","","","","","","","","","","","","",""
"20303","
    <div style=""max-width: 800px; margin: auto; text-align: left;"">
      <h2>LexTALE Vocabulary Test</h2>
      <p>In this test, you will see a series of letter strings—one at a time.</p>
      <p>Your task is to decide whether each string is a real English word.</p>
      <p><strong>Key responses:</strong></p>
      <ul>
        <li><strong>F</strong> = YES (real English word)</li>
        <li><strong>J</strong> = NO (not a real English word)</li>
      </ul>
      <p>There is no time limit, but please try to be accurate.</p>
      <p style=""margin-top: 2em;"">Press any key to begin.</p>
    </div>
  "," ","html-keyboard-response","4","2.1.0","130374","F=YES, J=NO","w1o8yvjqxe","2","56","78","35","","","","","","","","","","","","","","","",""
"13416","
  <p style=""font-size: 40px;"">platery</p>
  <p style=""font-size: 16px;"">F = YES &nbsp;&nbsp;&nbsp; J = NO</p>
","f","html-keyboard-response","5","2.1.0","143795","F=YES, J=NO","w1o8yvjqxe","2","56","78","35","","","","","","lextale","false","true","","","","","","","",""
"1432","
  <p style=""font-size: 40px;"">denial</p>
  <p style=""font-size: 16px;"">F = YES &nbsp;&nbsp;&nbsp; J = NO</p>
","f","html-keyboard-response","6","2.1.0","145229","F=YES, J=NO","w1o8yvjqxe","2","56","78","35","","","","","","lextale","true","true","","","","","","","",""
"1969","
  <p style=""font-size: 40px;"">marrit</p>
  <p style=""font-size: 16px;"">F = YES &nbsp;&nbsp;&nbsp; J = NO</p>
","f","html-keyboard-response","7","2.1.0","147199","F=YES, J=NO","w1o8yvjqxe","2","56","78","35","","","","","","lextale","false","true","","","","","","","",""
"823","
  <p style=""font-size: 40px;"">bottle</p>
  <p style=""font-size: 16px;"">F = YES &nbsp;&nbsp;&nbsp; J = NO</p>
","f","html-keyboard-response","8","2.1.0","148024","F=YES, J=NO","w1o8yvjqxe","2","56","78","35","","","","","","lextale","true","false","","","","","","","",""
"711","
  <p style=""font-size: 40px;"">birst</p>
  <p style=""font-size: 16px;"">F = YES &nbsp;&nbsp;&nbsp; J = NO</p>
","f","html-keyboard-response","9","2.1.0","148736","F=YES, J=NO","w1o8yvjqxe","2","56","78","35","","","","","","lextale","false","false","","","","","","","",""
"933","
  <p style=""font-size: 40px;"">envy</p>
  <p style=""font-size: 16px;"">F = YES &nbsp;&nbsp;&nbsp; J = NO</p>
","f","html-keyboard-response","10","2.1.0","149670","F=YES, J=NO","w1o8yvjqxe","2","56","78","35","","","","","","lextale","true","false","","","","","","","",""
"1395","
  <p style=""font-size: 40px;"">brang</p>
  <p style=""font-size: 16px;"">F = YES &nbsp;&nbsp;&nbsp; J = NO</p>
","f","html-keyboard-response","11","2.1.0","151067","F=YES, J=NO","w1o8yvjqxe","2","56","78","35","","","","","","lextale","false","false","","","","","","","",""
"1080","
  <p style=""font-size: 40px;"">huge</p>
  <p style=""font-size: 16px;"">F = YES &nbsp;&nbsp;&nbsp; J = NO</p>
","f","html-keyboard-response","12","2.1.0","152148","F=YES, J=NO","w1o8yvjqxe","2","56","78","35","","","","","","lextale","true","false","","","","","","","",""
"1327","
  <p style=""font-size: 40px;"">plove</p>
  <p style=""font-size: 16px;"">F = YES &nbsp;&nbsp;&nbsp; J = NO</p>
","f","html-keyboard-response","13","2.1.0","153476","F=YES, J=NO","w1o8yvjqxe","2","56","78","35","","","","","","lextale","false","false","","","","","","","",""
"860","
  <p style=""font-size: 40px;"">border</p>
  <p style=""font-size: 16px;"">F = YES &nbsp;&nbsp;&nbsp; J = NO</p>
","f","html-keyboard-response","14","2.1.0","154338","F=YES, J=NO","w1o8yvjqxe","2","56","78","35","","","","","","lextale","true","false","","","","","","","",""
"747","
  <p style=""font-size: 40px;"">flimsy</p>
  <p style=""font-size: 16px;"">F = YES &nbsp;&nbsp;&nbsp; J = NO</p>
","f","html-keyboard-response","15","2.1.0","155086","F=YES, J=NO","w1o8yvjqxe","2","56","78","35","","","","","","lextale","true","false","","","","","","","",""
"756","
  <p style=""font-size: 40px;"">drain</p>
  <p style=""font-size: 16px;"">F = YES &nbsp;&nbsp;&nbsp; J = NO</p>
","f","html-keyboard-response","16","2.1.0","155844","F=YES, J=NO","w1o8yvjqxe","2","56","78","35","","","","","","lextale","true","false","","","","","","","",""
"2324","
  <p style=""font-size: 40px;"">twindle</p>
  <p style=""font-size: 16px;"">F = YES &nbsp;&nbsp;&nbsp; J = NO</p>
","f","html-keyboard-response","17","2.1.0","158169","F=YES, J=NO","w1o8yvjqxe","2","56","78","35","","","","","","lextale","false","false","","","","","","","",""
"962","
  <p style=""font-size: 40px;"">propose</p>
  <p style=""font-size: 16px;"">F = YES &nbsp;&nbsp;&nbsp; J = NO</p>
","f","html-keyboard-response","18","2.1.0","159132","F=YES, J=NO","w1o8yvjqxe","2","56","78","35","","","","","","lextale","true","false","","","","","","","",""
"2652","
  <p style=""font-size: 40px;"">forlay</p>
  <p style=""font-size: 16px;"">F = YES &nbsp;&nbsp;&nbsp; J = NO</p>
","j","html-keyboard-response","19","2.1.0","161785","F=YES, J=NO","w1o8yvjqxe","2","56","78","35","","","","","","lextale","false","false","","","","","","","",""
"1397","
  <p style=""font-size: 40px;"">tenant</p>
  <p style=""font-size: 16px;"">F = YES &nbsp;&nbsp;&nbsp; J = NO</p>
","f","html-keyboard-response","20","2.1.0","163183","F=YES, J=NO","w1o8yvjqxe","2","56","78","35","","","","","","lextale","true","false","","","","","","","",""
"1001","
  <p style=""font-size: 40px;"">strain</p>
  <p style=""font-size: 16px;"">F = YES &nbsp;&nbsp;&nbsp; J = NO</p>
","f","html-keyboard-response","21","2.1.0","164185","F=YES, J=NO","w1o8yvjqxe","2","56","78","35","","","","","","lextale","true","false","","","","","","","",""
"1602","
  <p style=""font-size: 40px;"">holster</p>
  <p style=""font-size: 16px;"">F = YES &nbsp;&nbsp;&nbsp; J = NO</p>
","j","html-keyboard-response","22","2.1.0","165788","F=YES, J=NO","w1o8yvjqxe","2","56","78","35","","","","","","lextale","true","false","","","","","","","",""
"2424","
  <p style=""font-size: 40px;"">hinder</p>
  <p style=""font-size: 16px;"">F = YES &nbsp;&nbsp;&nbsp; J = NO</p>
","f","html-keyboard-response","23","2.1.0","168213","F=YES, J=NO","w1o8yvjqxe","2","56","78","35","","","","","","lextale","true","false","","","","","","","",""
"924","
  <p style=""font-size: 40px;"">swindle</p>
  <p style=""font-size: 16px;"">F = YES &nbsp;&nbsp;&nbsp; J = NO</p>
","f","html-keyboard-response","24","2.1.0","169138","F=YES, J=NO","w1o8yvjqxe","2","56","78","35","","","","","","lextale","true","false","","","","","","","",""
"1344","
  <p style=""font-size: 40px;"">nuder</p>
  <p style=""font-size: 16px;"">F = YES &nbsp;&nbsp;&nbsp; J = NO</p>
","f","html-keyboard-response","25","2.1.0","170483","F=YES, J=NO","w1o8yvjqxe","2","56","78","35","","","","","","lextale","false","false","","","","","","","",""
"1358","
  <p style=""font-size: 40px;"">pillow</p>
  <p style=""font-size: 16px;"">F = YES &nbsp;&nbsp;&nbsp; J = NO</p>
","f","html-keyboard-response","26","2.1.0","171843","F=YES, J=NO","w1o8yvjqxe","2","56","78","35","","","","","","lextale","true","false","","","","","","","",""
"2015","
  <p style=""font-size: 40px;"">shumble</p>
  <p style=""font-size: 16px;"">F = YES &nbsp;&nbsp;&nbsp; J = NO</p>
","j","html-keyboard-response","27","2.1.0","173859","F=YES, J=NO","w1o8yvjqxe","2","56","78","35","","","","","","lextale","false","false","","","","","","","",""
"953","
  <p style=""font-size: 40px;"">thirst</p>
  <p style=""font-size: 16px;"">F = YES &nbsp;&nbsp;&nbsp; J = NO</p>
","f","html-keyboard-response","28","2.1.0","174813","F=YES, J=NO","w1o8yvjqxe","2","56","78","35","","","","","","lextale","true","false","","","","","","","",""
"1498","
  <p style=""font-size: 40px;"">unsail</p>
  <p style=""font-size: 16px;"">F = YES &nbsp;&nbsp;&nbsp; J = NO</p>
","f","html-keyboard-response","29","2.1.0","176311","F=YES, J=NO","w1o8yvjqxe","2","56","78","35","","","","","","lextale","false","false","","","","","","","",""
"1069","
  <p style=""font-size: 40px;"">rifle</p>
  <p style=""font-size: 16px;"">F = YES &nbsp;&nbsp;&nbsp; J = NO</p>
","f","html-keyboard-response","30","2.1.0","177382","F=YES, J=NO","w1o8yvjqxe","2","56","78","35","","","","","","lextale","true","false","","","","","","","",""
"1345","
  <p style=""font-size: 40px;"">mush</p>
  <p style=""font-size: 16px;"">F = YES &nbsp;&nbsp;&nbsp; J = NO</p>
","f","html-keyboard-response","31","2.1.0","178729","F=YES, J=NO","w1o8yvjqxe","2","56","78","35","","","","","","lextale","false","false","","","","","","","",""
"1083","
  <p style=""font-size: 40px;"">drench</p>
  <p style=""font-size: 16px;"">F = YES &nbsp;&nbsp;&nbsp; J = NO</p>
","f","html-keyboard-response","32","2.1.0","179813","F=YES, J=NO","w1o8yvjqxe","2","56","78","35","","","","","","lextale","true","false","","","","","","","",""
"1608","
  <p style=""font-size: 40px;"">snirt</p>
  <p style=""font-size: 16px;"">F = YES &nbsp;&nbsp;&nbsp; J = NO</p>
","j","html-keyboard-response","33","2.1.0","181422","F=YES, J=NO","w1o8yvjqxe","2","56","78","35","","","","","","lextale","false","false","","","","","","","",""
"924","
  <p style=""font-size: 40px;"">bitter</p>
  <p style=""font-size: 16px;"">F = YES &nbsp;&nbsp;&nbsp; J = NO</p>
","f","html-keyboard-response","34","2.1.0","182348","F=YES, J=NO","w1o8yvjqxe","2","56","78","35","","","","","","lextale","true","false","","","","","","","",""
"970","
  <p style=""font-size: 40px;"">pliff</p>
  <p style=""font-size: 16px;"">F = YES &nbsp;&nbsp;&nbsp; J = NO</p>
","j","html-keyboard-response","35","2.1.0","183320","F=YES, J=NO","w1o8yvjqxe","2","56","78","35","","","","","","lextale","false","false","","","","","","","",""
"1010","
  <p style=""font-size: 40px;"">tablet</p>
  <p style=""font-size: 16px;"">F = YES &nbsp;&nbsp;&nbsp; J = NO</p>
","f","html-keyboard-response","36","2.1.0","184331","F=YES, J=NO","w1o8yvjqxe","2","56","78","35","","","","","","lextale","true","false","","","","","","","",""
"777","
  <p style=""font-size: 40px;"">glimmer</p>
  <p style=""font-size: 16px;"">F = YES &nbsp;&nbsp;&nbsp; J = NO</p>
","f","html-keyboard-response","37","2.1.0","185109","F=YES, J=NO","w1o8yvjqxe","2","56","78","35","","","","","","lextale","true","false","","","","","","","",""
"1665","
  <p style=""font-size: 40px;"">slink</p>
  <p style=""font-size: 16px;"">F = YES &nbsp;&nbsp;&nbsp; J = NO</p>
","j","html-keyboard-response","38","2.1.0","186775","F=YES, J=NO","w1o8yvjqxe","2","56","78","35","","","","","","lextale","true","false","","","","","","","",""
"1380","
  <p style=""font-size: 40px;"">clever</p>
  <p style=""font-size: 16px;"">F = YES &nbsp;&nbsp;&nbsp; J = NO</p>
","f","html-keyboard-response","39","2.1.0","188156","F=YES, J=NO","w1o8yvjqxe","2","56","78","35","","","","","","lextale","true","false","","","","","","","",""
"781","
  <p style=""font-size: 40px;"">grum</p>
  <p style=""font-size: 16px;"">F = YES &nbsp;&nbsp;&nbsp; J = NO</p>
","f","html-keyboard-response","40","2.1.0","188938","F=YES, J=NO","w1o8yvjqxe","2","56","78","35","","","","","","lextale","false","false","","","","","","","",""
"1192","
  <p style=""font-size: 40px;"">string</p>
  <p style=""font-size: 16px;"">F = YES &nbsp;&nbsp;&nbsp; J = NO</p>
","f","html-keyboard-response","41","2.1.0","190131","F=YES, J=NO","w1o8yvjqxe","2","56","78","35","","","","","","lextale","true","false","","","","","","","",""
"958","
  <p style=""font-size: 40px;"">plim</p>
  <p style=""font-size: 16px;"">F = YES &nbsp;&nbsp;&nbsp; J = NO</p>
","j","html-keyboard-response","42","2.1.0","191091","F=YES, J=NO","w1o8yvjqxe","2","56","78","35","","","","","","lextale","false","false","","","","","","","",""
"1424","
  <p style=""font-size: 40px;"">cable</p>
  <p style=""font-size: 16px;"">F = YES &nbsp;&nbsp;&nbsp; J = NO</p>
","f","html-keyboard-response","43","2.1.0","192515","F=YES, J=NO","w1o8yvjqxe","2","56","78","35","","","","","","lextale","true","false","","","","","","","",""
"2410","
  <p style=""font-size: 40px;"">shrivel</p>
  <p style=""font-size: 16px;"">F = YES &nbsp;&nbsp;&nbsp; J = NO</p>
","j","html-keyboard-response","44","2.1.0","194927","F=YES, J=NO","w1o8yvjqxe","2","56","78","35","","","","","","lextale","true","false","","","","","","","",""
"1283","
  <p style=""font-size: 40px;"">tarnish</p>
  <p style=""font-size: 16px;"">F = YES &nbsp;&nbsp;&nbsp; J = NO</p>
","f","html-keyboard-response","45","2.1.0","196211","F=YES, J=NO","w1o8yvjqxe","2","56","78","35","","","","","","lextale","true","false","","","","","","","",""
"850","
  <p style=""font-size: 40px;"">blim</p>
  <p style=""font-size: 16px;"">F = YES &nbsp;&nbsp;&nbsp; J = NO</p>
","j","html-keyboard-response","46","2.1.0","197063","F=YES, J=NO","w1o8yvjqxe","2","56","78","35","","","","","","lextale","false","false","","","","","","","",""
"1693","
  <p style=""font-size: 40px;"">stifle</p>
  <p style=""font-size: 16px;"">F = YES &nbsp;&nbsp;&nbsp; J = NO</p>
","f","html-keyboard-response","47","2.1.0","198757","F=YES, J=NO","w1o8yvjqxe","2","56","78","35","","","","","","lextale","true","false","","","","","","","",""
"863","
  <p style=""font-size: 40px;"">bint</p>
  <p style=""font-size: 16px;"">F = YES &nbsp;&nbsp;&nbsp; J = NO</p>
","j","html-keyboard-response","48","2.1.0","199621","F=YES, J=NO","w1o8yvjqxe","2","56","78","35","","","","","","lextale","false","false","","","","","","","",""
"1008","
  <p style=""font-size: 40px;"">purple</p>
  <p style=""font-size: 16px;"">F = YES &nbsp;&nbsp;&nbsp; J = NO</p>
","f","html-keyboard-response","49","2.1.0","200631","F=YES, J=NO","w1o8yvjqxe","2","56","78","35","","","","","","lextale","true","false","","","","","","","",""
"2053","
  <p style=""font-size: 40px;"">wriggle</p>
  <p style=""font-size: 16px;"">F = YES &nbsp;&nbsp;&nbsp; J = NO</p>
","f","html-keyboard-response","50","2.1.0","202685","F=YES, J=NO","w1o8yvjqxe","2","56","78","35","","","","","","lextale","true","false","","","","","","","",""
"1671","
  <p style=""font-size: 40px;"">mangle</p>
  <p style=""font-size: 16px;"">F = YES &nbsp;&nbsp;&nbsp; J = NO</p>
","f","html-keyboard-response","51","2.1.0","204357","F=YES, J=NO","w1o8yvjqxe","2","56","78","35","","","","","","lextale","true","false","","","","","","","",""
"922","
  <p style=""font-size: 40px;"">shramp</p>
  <p style=""font-size: 16px;"">F = YES &nbsp;&nbsp;&nbsp; J = NO</p>
","f","html-keyboard-response","52","2.1.0","205280","F=YES, J=NO","w1o8yvjqxe","2","56","78","35","","","","","","lextale","false","false","","","","","","","",""
"2957","
  <p style=""font-size: 40px;"">flirt</p>
  <p style=""font-size: 16px;"">F = YES &nbsp;&nbsp;&nbsp; J = NO</p>
","f","html-keyboard-response","53","2.1.0","208239","F=YES, J=NO","w1o8yvjqxe","2","56","78","35","","","","","","lextale","true","false","","","","","","","",""
"1361","
  <p style=""font-size: 40px;"">frip</p>
  <p style=""font-size: 16px;"">F = YES &nbsp;&nbsp;&nbsp; J = NO</p>
","f","html-keyboard-response","54","2.1.0","209601","F=YES, J=NO","w1o8yvjqxe","2","56","78","35","","","","","","lextale","false","false","","","","","","","",""
"1674","
  <p style=""font-size: 40px;"">tangle</p>
  <p style=""font-size: 16px;"">F = YES &nbsp;&nbsp;&nbsp; J = NO</p>
","f","html-keyboard-response","55","2.1.0","211277","F=YES, J=NO","w1o8yvjqxe","2","56","78","35","","","","","","lextale","true","false","","","","","","","",""
"848","
  <p style=""font-size: 40px;"">crumble</p>
  <p style=""font-size: 16px;"">F = YES &nbsp;&nbsp;&nbsp; J = NO</p>
","f","html-keyboard-response","56","2.1.0","212126","F=YES, J=NO","w1o8yvjqxe","2","56","78","35","","","","","","lextale","true","false","","","","","","","",""
"1104","
  <p style=""font-size: 40px;"">wrinkle</p>
  <p style=""font-size: 16px;"">F = YES &nbsp;&nbsp;&nbsp; J = NO</p>
","f","html-keyboard-response","57","2.1.0","213231","F=YES, J=NO","w1o8yvjqxe","2","56","78","35","","","","","","lextale","true","false","","","","","","","",""
"779","
  <p style=""font-size: 40px;"">slumb</p>
  <p style=""font-size: 16px;"">F = YES &nbsp;&nbsp;&nbsp; J = NO</p>
","f","html-keyboard-response","58","2.1.0","214011","F=YES, J=NO","w1o8yvjqxe","2","56","78","35","","","","","","lextale","false","false","","","","","","","",""
"819","
  <p style=""font-size: 40px;"">jungle</p>
  <p style=""font-size: 16px;"">F = YES &nbsp;&nbsp;&nbsp; J = NO</p>
","f","html-keyboard-response","59","2.1.0","214831","F=YES, J=NO","w1o8yvjqxe","2","56","78","35","","","","","","lextale","true","false","","","","","","","",""
"793","
  <p style=""font-size: 40px;"">frolick</p>
  <p style=""font-size: 16px;"">F = YES &nbsp;&nbsp;&nbsp; J = NO</p>
","f","html-keyboard-response","60","2.1.0","215625","F=YES, J=NO","w1o8yvjqxe","2","56","78","35","","","","","","lextale","false","false","","","","","","","",""
"5244","
      <h2>LexTALE Test Completed</h2>
      <p>Your LexTALE vocabulary score is: <strong>56%</strong></p>
      <p>Press any key to continue.</p>
    "," ","html-keyboard-response","61","2.1.0","220872","F=YES, J=NO","w1o8yvjqxe","2","56","78","35","","","","","","","","","","","","","","","",""
"15733","
    <div style=""max-width: 800px; margin: auto; text-align: left;"">
      <h2>Break Time</h2>
      <p>You have completed the first part of the study.</p>
      <p>You may take a short <strong>30-second break</strong> before continuing.</p>
      <p>When you’re ready, press any key to continue to the final task.</p>
    </div>
  "," ","html-keyboard-response","62","2.1.0","236606","F=YES, J=NO","w1o8yvjqxe","2","56","78","35","","","","","","","","","","","","","","","",""
"19530","
    <div style=""max-width: 800px; margin: auto; text-align: left;"">
      <h2>Part 2: Lexical Decision Task</h2>
      <p>You will now begin the second part of the study.</p>
      <p>Each trial will follow this sequence:</p>
      <ul>
        <li>A fixation cross (+) appears at the center of the screen.</li>
        <li>You will hear a short beep followed by a spoken word.</li>
        <li>A written word will appear briefly on the screen.</li>
      </ul>
      <p>Your task is to judge whether the <strong>written word</strong> is a real English word.</p>
      <p style=""margin-top: 1em;""><strong>Key responses:</strong></p>
      <ul>
        <li><strong>F</strong> = YES (real English word)</li>
        <li><strong>J</strong> = NO (not a real English word)</li>
      </ul>
      <p>Please respond as quickly and accurately as you can.</p>
      <p style=""margin-top: 2em;"">Press any key to continue.</p>
    </div>
  "," ","html-keyboard-response","63","2.1.0","256138","F=YES, J=NO","w1o8yvjqxe","2","56","78","35","","","","","","","","","","","","","","","",""
"5829","
    <div style=""max-width: 800px; margin: auto; text-align: left;"">
      <h2>Before You Begin</h2>
      <p>Make sure your sound is turned on.</p>
      <p>You will hear audio during each trial, but your decision should be based only on the <strong>written word</strong> you see on the screen.</p>
      <p><strong>Reminder:</strong></p>
      <ul>
        <li><strong>F</strong> = YES (real English word)</li>
        <li><strong>J</strong> = NO (not a real English word)</li>
      </ul>
      <p style=""margin-top: 2em;"">Press any key when you are ready to begin.</p>
    </div>
  "," ","html-keyboard-response","64","2.1.0","261968","F=YES, J=NO","w1o8yvjqxe","2","56","78","35","","","","","","","","","","","","","","","",""
"8244","
    <div style=""max-width: 800px; margin: auto; text-align: left;"">
      <h2>Part 2: Practice Trials</h2>
      <p>You will now complete a few <strong>practice trials</strong> to get familiar with the task.</p>
      <p>These trials are <strong>not scored</strong> and are only to help you get used to the format.</p>
      <p style=""margin-top: 2em;"">Press any key to begin.</p>
    </div>
  "," ","html-keyboard-response","65","2.1.0","270214","F=YES, J=NO","w1o8yvjqxe","2","56","78","35","","","","","","","","","","","","","","","",""
"3113","<p>Starting practice block 1 of 2. Press any key to continue.</p>"," ","html-keyboard-response","66","2.1.0","273329","F=YES, J=NO","w1o8yvjqxe","2","56","78","35","","","","","","","","","","","","","","","",""
"null","<p style=""font-size: 50px;"">+</p>","null","html-keyboard-response","67","2.1.0","273639","F=YES, J=NO","w1o8yvjqxe","2","56","78","35","","","","","","","","","","","","","","","",""
"null","audio/beep-329314.mp3","null","audio-keyboard-response","68","2.1.0","275660","F=YES, J=NO","w1o8yvjqxe","2","56","78","35","","","","","","","","","","","","","","","",""
"null","audio/vehicle1.wav","null","audio-keyboard-response","69","2.1.0","277035","F=YES, J=NO","w1o8yvjqxe","2","56","78","35","","","","","","","","","","","","","","","",""
"1341","
          <p id=""word"" style=""font-size: 40px;"">dropt</p>
          <p style=""font-size: 16px;"">F = YES &nbsp;&nbsp;&nbsp; J = NO</p>
        ","f","html-keyboard-response","70","2.1.0","278378","F=YES, J=NO","w1o8yvjqxe","2","56","78","35","","","","","","","","","dropt","vehicle1","pseudoword","pseudoword","j","false","",""
"null","<p style=""font-size: 50px;"">+</p>","null","html-keyboard-response","71","2.1.0","278690","F=YES, J=NO","w1o8yvjqxe","2","56","78","35","","","","","","","","","","","","","","","",""
"null","audio/beep-329314.mp3","null","audio-keyboard-response","72","2.1.0","280215","F=YES, J=NO","w1o8yvjqxe","2","56","78","35","","","","","","","","","","","","","","","",""
"null","audio/camera1.wav","null","audio-keyboard-response","73","2.1.0","281034","F=YES, J=NO","w1o8yvjqxe","2","56","78","35","","","","","","","","","","","","","","","",""
"939","
          <p id=""word"" style=""font-size: 40px;"">stir</p>
          <p style=""font-size: 16px;"">F = YES &nbsp;&nbsp;&nbsp; J = NO</p>
        ","f","html-keyboard-response","74","2.1.0","281975","F=YES, J=NO","w1o8yvjqxe","2","56","78","35","","","","","","","","","stir","camera1","filler","filler","f","true","",""
"null","<p style=""font-size: 50px;"">+</p>","null","html-keyboard-response","75","2.1.0","282283","F=YES, J=NO","w1o8yvjqxe","2","56","78","35","","","","","","","","","","","","","","","",""
"null","audio/beep-329314.mp3","null","audio-keyboard-response","76","2.1.0","283813","F=YES, J=NO","w1o8yvjqxe","2","56","78","35","","","","","","","","","","","","","","","",""
"null","audio/brain.wav","null","audio-keyboard-response","77","2.1.0","284295","F=YES, J=NO","w1o8yvjqxe","2","56","78","35","","","","","","","","","","","","","","","",""
"859","
          <p id=""word"" style=""font-size: 40px;"">throw</p>
          <p style=""font-size: 16px;"">F = YES &nbsp;&nbsp;&nbsp; J = NO</p>
        ","f","html-keyboard-response","78","2.1.0","285155","F=YES, J=NO","w1o8yvjqxe","2","56","78","35","","","","","","","","","throw","brain","filler","filler","f","true","",""
"null","<p style=""font-size: 50px;"">+</p>","null","html-keyboard-response","79","2.1.0","285458","F=YES, J=NO","w1o8yvjqxe","2","56","78","35","","","","","","","","","","","","","","","",""
"null","audio/beep-329314.mp3","null","audio-keyboard-response","80","2.1.0","286994","F=YES, J=NO","w1o8yvjqxe","2","56","78","35","","","","","","","","","","","","","","","",""
"null","audio/client1.wav","null","audio-keyboard-response","81","2.1.0","288314","F=YES, J=NO","w1o8yvjqxe","2","56","78","35","","","","","","","","","","","","","","","",""
"1018","
          <p id=""word"" style=""font-size: 40px;"">droothe</p>
          <p style=""font-size: 16px;"">F = YES &nbsp;&nbsp;&nbsp; J = NO</p>
        ","f","html-keyboard-response","82","2.1.0","289334","F=YES, J=NO","w1o8yvjqxe","2","56","78","35","","","","","","","","","droothe","client1","pseudoword","pseudoword","j","false","",""
"null","<p style=""font-size: 50px;"">+</p>","null","html-keyboard-response","83","2.1.0","289639","F=YES, J=NO","w1o8yvjqxe","2","56","78","35","","","","","","","","","","","","","","","",""
"null","audio/beep-329314.mp3","null","audio-keyboard-response","84","2.1.0","291174","F=YES, J=NO","w1o8yvjqxe","2","56","78","35","","","","","","","","","","","","","","","",""
"null","audio/smirk1.wav","null","audio-keyboard-response","85","2.1.0","291893","F=YES, J=NO","w1o8yvjqxe","2","56","78","35","","","","","","","","","","","","","","","",""
"1254","
          <p id=""word"" style=""font-size: 40px;"">snopt</p>
          <p style=""font-size: 16px;"">F = YES &nbsp;&nbsp;&nbsp; J = NO</p>
        ","f","html-keyboard-response","86","2.1.0","293149","F=YES, J=NO","w1o8yvjqxe","2","56","78","35","","","","","","","","","snopt","smirk1","pseudoword","pseudoword","j","false","",""
"null","<p style=""font-size: 50px;"">+</p>","null","html-keyboard-response","87","2.1.0","293453","F=YES, J=NO","w1o8yvjqxe","2","56","78","35","","","","","","","","","","","","","","","",""
"null","audio/beep-329314.mp3","null","audio-keyboard-response","88","2.1.0","294995","F=YES, J=NO","w1o8yvjqxe","2","56","78","35","","","","","","","","","","","","","","","",""
"null","audio/van1.wav","null","audio-keyboard-response","89","2.1.0","295634","F=YES, J=NO","w1o8yvjqxe","2","56","78","35","","","","","","","","","","","","","","","",""
"1081","
          <p id=""word"" style=""font-size: 40px;"">push</p>
          <p style=""font-size: 16px;"">F = YES &nbsp;&nbsp;&nbsp; J = NO</p>
        ","f","html-keyboard-response","90","2.1.0","296717","F=YES, J=NO","w1o8yvjqxe","2","56","78","35","","","","","","","","","push","van1","filler","filler","f","true","",""
"null","<p style=""font-size: 50px;"">+</p>","null","html-keyboard-response","91","2.1.0","297031","F=YES, J=NO","w1o8yvjqxe","2","56","78","35","","","","","","","","","","","","","","","",""
"null","audio/beep-329314.mp3","null","audio-keyboard-response","92","2.1.0","298554","F=YES, J=NO","w1o8yvjqxe","2","56","78","35","","","","","","","","","","","","","","","",""
"null","audio/ankle1.wav","null","audio-keyboard-response","93","2.1.0","299074","F=YES, J=NO","w1o8yvjqxe","2","56","78","35","","","","","","","","","","","","","","","",""
"956","
          <p id=""word"" style=""font-size: 40px;"">kick</p>
          <p style=""font-size: 16px;"">F = YES &nbsp;&nbsp;&nbsp; J = NO</p>
        ","f","html-keyboard-response","94","2.1.0","300032","F=YES, J=NO","w1o8yvjqxe","2","56","78","35","","","","","","","","","kick","ankle1","filler","filler","f","true","",""
"null","<p style=""font-size: 50px;"">+</p>","null","html-keyboard-response","95","2.1.0","300348","F=YES, J=NO","w1o8yvjqxe","2","56","78","35","","","","","","","","","","","","","","","",""
"null","audio/beep-329314.mp3","null","audio-keyboard-response","96","2.1.0","301874","F=YES, J=NO","w1o8yvjqxe","2","56","78","35","","","","","","","","","","","","","","","",""
"null","audio/kettle1.wav","null","audio-keyboard-response","97","2.1.0","302334","F=YES, J=NO","w1o8yvjqxe","2","56","78","35","","","","","","","","","","","","","","","",""
"755","
          <p id=""word"" style=""font-size: 40px;"">wrap</p>
          <p style=""font-size: 16px;"">F = YES &nbsp;&nbsp;&nbsp; J = NO</p>
        ","f","html-keyboard-response","98","2.1.0","303090","F=YES, J=NO","w1o8yvjqxe","2","56","78","35","","","","","","","","","wrap","kettle1","filler","filler","f","true","",""
"null","<p style=""font-size: 50px;"">+</p>","null","html-keyboard-response","99","2.1.0","303395","F=YES, J=NO","w1o8yvjqxe","2","56","78","35","","","","","","","","","","","","","","","",""
"null","audio/beep-329314.mp3","null","audio-keyboard-response","100","2.1.0","304934","F=YES, J=NO","w1o8yvjqxe","2","56","78","35","","","","","","","","","","","","","","","",""
"null","audio/beach1.wav","null","audio-keyboard-response","101","2.1.0","305854","F=YES, J=NO","w1o8yvjqxe","2","56","78","35","","","","","","","","","","","","","","","",""
"884","
          <p id=""word"" style=""font-size: 40px;"">drive</p>
          <p style=""font-size: 16px;"">F = YES &nbsp;&nbsp;&nbsp; J = NO</p>
        ","f","html-keyboard-response","102","2.1.0","306740","F=YES, J=NO","w1o8yvjqxe","2","56","78","35","","","","","","","","","drive","beach1","filler","filler","f","true","",""
"null","<p style=""font-size: 50px;"">+</p>","null","html-keyboard-response","103","2.1.0","307050","F=YES, J=NO","w1o8yvjqxe","2","56","78","35","","","","","","","","","","","","","","","",""
"null","audio/beep-329314.mp3","null","audio-keyboard-response","104","2.1.0","308573","F=YES, J=NO","w1o8yvjqxe","2","56","78","35","","","","","","","","","","","","","","","",""
"null","audio/road.wav","null","audio-keyboard-response","105","2.1.0","309294","F=YES, J=NO","w1o8yvjqxe","2","56","78","35","","","","","","","","","","","","","","","",""
"970","
          <p id=""word"" style=""font-size: 40px;"">wappings</p>
          <p style=""font-size: 16px;"">F = YES &nbsp;&nbsp;&nbsp; J = NO</p>
        ","j","html-keyboard-response","106","2.1.0","310265","F=YES, J=NO","w1o8yvjqxe","2","56","78","35","","","","","","","","","wappings","road","pseudoword","pseudoword","j","true","",""
"null","<p style=""font-size: 50px;"">+</p>","null","html-keyboard-response","107","2.1.0","310578","F=YES, J=NO","w1o8yvjqxe","2","56","78","35","","","","","","","","","","","","","","","",""
"null","audio/beep-329314.mp3","null","audio-keyboard-response","108","2.1.0","312114","F=YES, J=NO","w1o8yvjqxe","2","56","78","35","","","","","","","","","","","","","","","",""
"null","audio/bush1.wav","null","audio-keyboard-response","109","2.1.0","312754","F=YES, J=NO","w1o8yvjqxe","2","56","78","35","","","","","","","","","","","","","","","",""
"975","
          <p id=""word"" style=""font-size: 40px;"">platined</p>
          <p style=""font-size: 16px;"">F = YES &nbsp;&nbsp;&nbsp; J = NO</p>
        ","f","html-keyboard-response","110","2.1.0","313730","F=YES, J=NO","w1o8yvjqxe","2","56","78","35","","","","","","","","","platined","bush1","pseudoword","pseudoword","j","false","",""
"null","<p style=""font-size: 50px;"">+</p>","null","html-keyboard-response","111","2.1.0","314041","F=YES, J=NO","w1o8yvjqxe","2","56","78","35","","","","","","","","","","","","","","","",""
"null","audio/beep-329314.mp3","null","audio-keyboard-response","112","2.1.0","315575","F=YES, J=NO","w1o8yvjqxe","2","56","78","35","","","","","","","","","","","","","","","",""
"null","audio/grass.wav","null","audio-keyboard-response","113","2.1.0","316214","F=YES, J=NO","w1o8yvjqxe","2","56","78","35","","","","","","","","","","","","","","","",""
"1063","
          <p id=""word"" style=""font-size: 40px;"">milames</p>
          <p style=""font-size: 16px;"">F = YES &nbsp;&nbsp;&nbsp; J = NO</p>
        ","j","html-keyboard-response","114","2.1.0","317279","F=YES, J=NO","w1o8yvjqxe","2","56","78","35","","","","","","","","","milames","grass","pseudoword","pseudoword","j","true","",""
"3589","<p>Starting practice block 2 of 2. Press any key to continue.</p>"," ","html-keyboard-response","115","2.1.0","320869","F=YES, J=NO","w1o8yvjqxe","2","56","78","35","","","","","","","","","","","","","","","",""
"null","<p style=""font-size: 50px;"">+</p>","null","html-keyboard-response","116","2.1.0","321180","F=YES, J=NO","w1o8yvjqxe","2","56","78","35","","","","","","","","","","","","","","","",""
"null","audio/beep-329314.mp3","null","audio-keyboard-response","117","2.1.0","322715","F=YES, J=NO","w1o8yvjqxe","2","56","78","35","","","","","","","","","","","","","","","",""
"null","audio/breath.wav","null","audio-keyboard-response","118","2.1.0","323975","F=YES, J=NO","w1o8yvjqxe","2","56","78","35","","","","","","","","","","","","","","","",""
"819","
          <p id=""word"" style=""font-size: 40px;"">pack</p>
          <p style=""font-size: 16px;"">F = YES &nbsp;&nbsp;&nbsp; J = NO</p>
        ","f","html-keyboard-response","119","2.1.0","324795","F=YES, J=NO","w1o8yvjqxe","2","56","78","35","","","","","","","","","pack","breath","filler","filler","f","true","",""
"null","<p style=""font-size: 50px;"">+</p>","null","html-keyboard-response","120","2.1.0","325101","F=YES, J=NO","w1o8yvjqxe","2","56","78","35","","","","","","","","","","","","","","","",""
"null","audio/beep-329314.mp3","null","audio-keyboard-response","121","2.1.0","326634","F=YES, J=NO","w1o8yvjqxe","2","56","78","35","","","","","","","","","","","","","","","",""
"null","audio/age1.wav","null","audio-keyboard-response","122","2.1.0","327174","F=YES, J=NO","w1o8yvjqxe","2","56","78","35","","","","","","","","","","","","","","","",""
"731","
          <p id=""word"" style=""font-size: 40px;"">bake</p>
          <p style=""font-size: 16px;"">F = YES &nbsp;&nbsp;&nbsp; J = NO</p>
        ","f","html-keyboard-response","123","2.1.0","327907","F=YES, J=NO","w1o8yvjqxe","2","56","78","35","","","","","","","","","bake","age1","filler","filler","f","true","",""
"null","<p style=""font-size: 50px;"">+</p>","null","html-keyboard-response","124","2.1.0","328216","F=YES, J=NO","w1o8yvjqxe","2","56","78","35","","","","","","","","","","","","","","","",""
"null","audio/beep-329314.mp3","null","audio-keyboard-response","125","2.1.0","329754","F=YES, J=NO","w1o8yvjqxe","2","56","78","35","","","","","","","","","","","","","","","",""
"null","audio/fence.wav","null","audio-keyboard-response","126","2.1.0","330794","F=YES, J=NO","w1o8yvjqxe","2","56","78","35","","","","","","","","","","","","","","","",""
"736","
          <p id=""word"" style=""font-size: 40px;"">trim</p>
          <p style=""font-size: 16px;"">F = YES &nbsp;&nbsp;&nbsp; J = NO</p>
        ","f","html-keyboard-response","127","2.1.0","331531","F=YES, J=NO","w1o8yvjqxe","2","56","78","35","","","","","","","","","trim","fence","filler","filler","f","true","",""
"null","<p style=""font-size: 50px;"">+</p>","null","html-keyboard-response","128","2.1.0","331841","F=YES, J=NO","w1o8yvjqxe","2","56","78","35","","","","","","","","","","","","","","","",""
"null","audio/beep-329314.mp3","null","audio-keyboard-response","129","2.1.0","333374","F=YES, J=NO","w1o8yvjqxe","2","56","78","35","","","","","","","","","","","","","","","",""
"null","audio/breath.wav","null","audio-keyboard-response","130","2.1.0","333934","F=YES, J=NO","w1o8yvjqxe","2","56","78","35","","","","","","","","","","","","","","","",""
"1004","
          <p id=""word"" style=""font-size: 40px;"">twets</p>
          <p style=""font-size: 16px;"">F = YES &nbsp;&nbsp;&nbsp; J = NO</p>
        ","j","html-keyboard-response","131","2.1.0","334940","F=YES, J=NO","w1o8yvjqxe","2","56","78","35","","","","","","","","","twets","breath","pseudoword","pseudoword","j","true","",""
"null","<p style=""font-size: 50px;"">+</p>","null","html-keyboard-response","132","2.1.0","335243","F=YES, J=NO","w1o8yvjqxe","2","56","78","35","","","","","","","","","","","","","","","",""
"null","audio/beep-329314.mp3","null","audio-keyboard-response","133","2.1.0","336774","F=YES, J=NO","w1o8yvjqxe","2","56","78","35","","","","","","","","","","","","","","","",""
"null","audio/burden.wav","null","audio-keyboard-response","134","2.1.0","337855","F=YES, J=NO","w1o8yvjqxe","2","56","78","35","","","","","","","","","","","","","","","",""
"909","
          <p id=""word"" style=""font-size: 40px;"">whotth</p>
          <p style=""font-size: 16px;"">F = YES &nbsp;&nbsp;&nbsp; J = NO</p>
        ","f","html-keyboard-response","135","2.1.0","338766","F=YES, J=NO","w1o8yvjqxe","2","56","78","35","","","","","","","","","whotth","burden","pseudoword","pseudoword","j","false","",""
"null","<p style=""font-size: 50px;"">+</p>","null","html-keyboard-response","136","2.1.0","339073","F=YES, J=NO","w1o8yvjqxe","2","56","78","35","","","","","","","","","","","","","","","",""
"null","audio/beep-329314.mp3","null","audio-keyboard-response","137","2.1.0","340615","F=YES, J=NO","w1o8yvjqxe","2","56","78","35","","","","","","","","","","","","","","","",""
"null","audio/strength.wav","null","audio-keyboard-response","138","2.1.0","341694","F=YES, J=NO","w1o8yvjqxe","2","56","78","35","","","","","","","","","","","","","","","",""
"1120","
          <p id=""word"" style=""font-size: 40px;"">plabet</p>
          <p style=""font-size: 16px;"">F = YES &nbsp;&nbsp;&nbsp; J = NO</p>
        ","j","html-keyboard-response","139","2.1.0","342815","F=YES, J=NO","w1o8yvjqxe","2","56","78","35","","","","","","","","","plabet","strength","pseudoword","pseudoword","j","true","",""
"null","<p style=""font-size: 50px;"">+</p>","null","html-keyboard-response","140","2.1.0","343126","F=YES, J=NO","w1o8yvjqxe","2","56","78","35","","","","","","","","","","","","","","","",""
"null","audio/beep-329314.mp3","null","audio-keyboard-response","141","2.1.0","344653","F=YES, J=NO","w1o8yvjqxe","2","56","78","35","","","","","","","","","","","","","","","",""
"null","audio/cancer1.wav","null","audio-keyboard-response","142","2.1.0","345334","F=YES, J=NO","w1o8yvjqxe","2","56","78","35","","","","","","","","","","","","","","","",""
"680","
          <p id=""word"" style=""font-size: 40px;"">draw</p>
          <p style=""font-size: 16px;"">F = YES &nbsp;&nbsp;&nbsp; J = NO</p>
        ","f","html-keyboard-response","143","2.1.0","346016","F=YES, J=NO","w1o8yvjqxe","2","56","78","35","","","","","","","","","draw","cancer1","filler","filler","f","true","",""
"null","<p style=""font-size: 50px;"">+</p>","null","html-keyboard-response","144","2.1.0","346331","F=YES, J=NO","w1o8yvjqxe","2","56","78","35","","","","","","","","","","","","","","","",""
"null","audio/beep-329314.mp3","null","audio-keyboard-response","145","2.1.0","347855","F=YES, J=NO","w1o8yvjqxe","2","56","78","35","","","","","","","","","","","","","","","",""
"null","audio/relief.wav","null","audio-keyboard-response","146","2.1.0","348495","F=YES, J=NO","w1o8yvjqxe","2","56","78","35","","","","","","","","","","","","","","","",""
"833","
          <p id=""word"" style=""font-size: 40px;"">grigg</p>
          <p style=""font-size: 16px;"">F = YES &nbsp;&nbsp;&nbsp; J = NO</p>
        ","j","html-keyboard-response","147","2.1.0","349330","F=YES, J=NO","w1o8yvjqxe","2","56","78","35","","","","","","","","","grigg","relief","pseudoword","pseudoword","j","true","",""
"null","<p style=""font-size: 50px;"">+</p>","null","html-keyboard-response","148","2.1.0","349645","F=YES, J=NO","w1o8yvjqxe","2","56","78","35","","","","","","","","","","","","","","","",""
"null","audio/beep-329314.mp3","null","audio-keyboard-response","149","2.1.0","351174","F=YES, J=NO","w1o8yvjqxe","2","56","78","35","","","","","","","","","","","","","","","",""
"null","audio/golf1.wav","null","audio-keyboard-response","150","2.1.0","352134","F=YES, J=NO","w1o8yvjqxe","2","56","78","35","","","","","","","","","","","","","","","",""
"843","
          <p id=""word"" style=""font-size: 40px;"">drabble</p>
          <p style=""font-size: 16px;"">F = YES &nbsp;&nbsp;&nbsp; J = NO</p>
        ","j","html-keyboard-response","151","2.1.0","352979","F=YES, J=NO","w1o8yvjqxe","2","56","78","35","","","","","","","","","drabble","golf1","pseudoword","pseudoword","j","true","",""
"null","<p style=""font-size: 50px;"">+</p>","null","html-keyboard-response","152","2.1.0","353293","F=YES, J=NO","w1o8yvjqxe","2","56","78","35","","","","","","","","","","","","","","","",""
"null","audio/beep-329314.mp3","null","audio-keyboard-response","153","2.1.0","354834","F=YES, J=NO","w1o8yvjqxe","2","56","78","35","","","","","","","","","","","","","","","",""
"null","audio/planet1.wav","null","audio-keyboard-response","154","2.1.0","355415","F=YES, J=NO","w1o8yvjqxe","2","56","78","35","","","","","","","","","","","","","","","",""
"630","
          <p id=""word"" style=""font-size: 40px;"">cratched</p>
          <p style=""font-size: 16px;"">F = YES &nbsp;&nbsp;&nbsp; J = NO</p>
        ","f","html-keyboard-response","155","2.1.0","356046","F=YES, J=NO","w1o8yvjqxe","2","56","78","35","","","","","","","","","cratched","planet1","pseudoword","pseudoword","j","false","",""
"null","<p style=""font-size: 50px;"">+</p>","null","html-keyboard-response","156","2.1.0","356359","F=YES, J=NO","w1o8yvjqxe","2","56","78","35","","","","","","","","","","","","","","","",""
"null","audio/beep-329314.mp3","null","audio-keyboard-response","157","2.1.0","357895","F=YES, J=NO","w1o8yvjqxe","2","56","78","35","","","","","","","","","","","","","","","",""
"null","audio/menu.wav","null","audio-keyboard-response","158","2.1.0","359094","F=YES, J=NO","w1o8yvjqxe","2","56","78","35","","","","","","","","","","","","","","","",""
"983","
          <p id=""word"" style=""font-size: 40px;"">slice</p>
          <p style=""font-size: 16px;"">F = YES &nbsp;&nbsp;&nbsp; J = NO</p>
        ","f","html-keyboard-response","159","2.1.0","360079","F=YES, J=NO","w1o8yvjqxe","2","56","78","35","","","","","","","","","slice","menu","filler","filler","f","true","",""
"null","<p style=""font-size: 50px;"">+</p>","null","html-keyboard-response","160","2.1.0","360387","F=YES, J=NO","w1o8yvjqxe","2","56","78","35","","","","","","","","","","","","","","","",""
"null","audio/beep-329314.mp3","null","audio-keyboard-response","161","2.1.0","361914","F=YES, J=NO","w1o8yvjqxe","2","56","78","35","","","","","","","","","","","","","","","",""
"null","audio/belief.wav","null","audio-keyboard-response","162","2.1.0","362814","F=YES, J=NO","w1o8yvjqxe","2","56","78","35","","","","","","","","","","","","","","","",""
"656","
          <p id=""word"" style=""font-size: 40px;"">read</p>
          <p style=""font-size: 16px;"">F = YES &nbsp;&nbsp;&nbsp; J = NO</p>
        ","f","html-keyboard-response","163","2.1.0","363471","F=YES, J=NO","w1o8yvjqxe","2","56","78","35","","","","","","","","","read","belief","filler","filler","f","true","",""
"10135","
    <div style=""max-width: 800px; margin: auto; text-align: left;"">
      <h2>Part 2: Main Trials</h2>
      <p>Great job on the practice trials!</p>
      <p>You will now begin the <strong>main set of trials</strong>.</p>
      <p>Remember your key assignments:</p>
      <ul>
        <li><strong>F</strong> = YES (real English word)</li>
        <li><strong>J</strong> = NO (not a real English word)</li>
      </ul>
      <p>Try to respond as <strong>quickly and accurately</strong> as possible.</p>
      <p style=""margin-top: 2em;"">Press any key to begin the main trials.</p>
    </div>
  "," ","html-keyboard-response","164","2.1.0","373607","F=YES, J=NO","w1o8yvjqxe","2","56","78","35","","","","","","","","","","","","","","","",""
"3060","<p>Starting main block 1 of 8. Press any key to continue.</p>"," ","html-keyboard-response","165","2.1.0","376668","F=YES, J=NO","w1o8yvjqxe","2","56","78","35","","","","","","","","","","","","","","","",""
"null","<p style=""font-size: 50px;"">+</p>","null","html-keyboard-response","166","2.1.0","376977","F=YES, J=NO","w1o8yvjqxe","2","56","78","35","","","","","","","","","","","","","","","",""
"null","audio/beep-329314.mp3","null","audio-keyboard-response","167","2.1.0","378503","F=YES, J=NO","w1o8yvjqxe","2","56","78","35","","","","","","","","","","","","","","","",""
"null","audio/gold1.wav","null","audio-keyboard-response","168","2.1.0","379033","F=YES, J=NO","w1o8yvjqxe","2","56","78","35","","","","","","","","","","","","","","","",""
"904","
          <p id=""word"" style=""font-size: 40px;"">sell</p>
          <p style=""font-size: 16px;"">F = YES &nbsp;&nbsp;&nbsp; J = NO</p>
        ","f","html-keyboard-response","169","2.1.0","379939","F=YES, J=NO","w1o8yvjqxe","2","56","78","35","","","","","","","","","sell","gold1","literal","experimental","f","true","",""
"null","<p style=""font-size: 50px;"">+</p>","null","html-keyboard-response","170","2.1.0","380250","F=YES, J=NO","w1o8yvjqxe","2","56","78","35","","","","","","","","","","","","","","","",""
"null","audio/beep-329314.mp3","null","audio-keyboard-response","171","2.1.0","381783","F=YES, J=NO","w1o8yvjqxe","2","56","78","35","","","","","","","","","","","","","","","",""
"null","audio/theory1.wav","null","audio-keyboard-response","172","2.1.0","382433","F=YES, J=NO","w1o8yvjqxe","2","56","78","35","","","","","","","","","","","","","","","",""
"656","
          <p id=""word"" style=""font-size: 40px;"">scolve</p>
          <p style=""font-size: 16px;"">F = YES &nbsp;&nbsp;&nbsp; J = NO</p>
        ","f","html-keyboard-response","173","2.1.0","383090","F=YES, J=NO","w1o8yvjqxe","2","56","78","35","","","","","","","","","scolve","theory1","pseudoword","pseudoword","j","false","",""
"null","<p style=""font-size: 50px;"">+</p>","null","html-keyboard-response","174","2.1.0","383400","F=YES, J=NO","w1o8yvjqxe","2","56","78","35","","","","","","","","","","","","","","","",""
"null","audio/beep-329314.mp3","null","audio-keyboard-response","175","2.1.0","384923","F=YES, J=NO","w1o8yvjqxe","2","56","78","35","","","","","","","","","","","","","","","",""
"null","audio/cancer1.wav","null","audio-keyboard-response","176","2.1.0","385453","F=YES, J=NO","w1o8yvjqxe","2","56","78","35","","","","","","","","","","","","","","","",""
"893","
          <p id=""word"" style=""font-size: 40px;"">fight</p>
          <p style=""font-size: 16px;"">F = YES &nbsp;&nbsp;&nbsp; J = NO</p>
        ","f","html-keyboard-response","177","2.1.0","386346","F=YES, J=NO","w1o8yvjqxe","2","56","78","35","","","","","","","","","fight","cancer1","metaphor","experimental","f","true","",""
"null","<p style=""font-size: 50px;"">+</p>","null","html-keyboard-response","178","2.1.0","386657","F=YES, J=NO","w1o8yvjqxe","2","56","78","35","","","","","","","","","","","","","","","",""
"null","audio/beep-329314.mp3","null","audio-keyboard-response","179","2.1.0","388183","F=YES, J=NO","w1o8yvjqxe","2","56","78","35","","","","","","","","","","","","","","","",""
"null","audio/dollar.wav","null","audio-keyboard-response","180","2.1.0","388573","F=YES, J=NO","w1o8yvjqxe","2","56","78","35","","","","","","","","","","","","","","","",""
"717","
          <p id=""word"" style=""font-size: 40px;"">gliptism</p>
          <p style=""font-size: 16px;"">F = YES &nbsp;&nbsp;&nbsp; J = NO</p>
        ","j","html-keyboard-response","181","2.1.0","389291","F=YES, J=NO","w1o8yvjqxe","2","56","78","35","","","","","","","","","gliptism","dollar","pseudoword","pseudoword","j","true","",""
"null","<p style=""font-size: 50px;"">+</p>","null","html-keyboard-response","182","2.1.0","389597","F=YES, J=NO","w1o8yvjqxe","2","56","78","35","","","","","","","","","","","","","","","",""
"null","audio/beep-329314.mp3","null","audio-keyboard-response","183","2.1.0","391124","F=YES, J=NO","w1o8yvjqxe","2","56","78","35","","","","","","","","","","","","","","","",""
"null","audio/account1.wav","null","audio-keyboard-response","184","2.1.0","391814","F=YES, J=NO","w1o8yvjqxe","2","56","78","35","","","","","","","","","","","","","","","",""
"657","
          <p id=""word"" style=""font-size: 40px;"">open</p>
          <p style=""font-size: 16px;"">F = YES &nbsp;&nbsp;&nbsp; J = NO</p>
        ","f","html-keyboard-response","185","2.1.0","392472","F=YES, J=NO","w1o8yvjqxe","2","56","78","35","","","","","","","","","open","account1","metaphor","experimental","f","true","",""
"null","<p style=""font-size: 50px;"">+</p>","null","html-keyboard-response","186","2.1.0","392788","F=YES, J=NO","w1o8yvjqxe","2","56","78","35","","","","","","","","","","","","","","","",""
"null","audio/beep-329314.mp3","null","audio-keyboard-response","187","2.1.0","394323","F=YES, J=NO","w1o8yvjqxe","2","56","78","35","","","","","","","","","","","","","","","",""
"null","audio/winter.wav","null","audio-keyboard-response","188","2.1.0","394893","F=YES, J=NO","w1o8yvjqxe","2","56","78","35","","","","","","","","","","","","","","","",""
"906","
          <p id=""word"" style=""font-size: 40px;"">straven</p>
          <p style=""font-size: 16px;"">F = YES &nbsp;&nbsp;&nbsp; J = NO</p>
        ","j","html-keyboard-response","189","2.1.0","395799","F=YES, J=NO","w1o8yvjqxe","2","56","78","35","","","","","","","","","straven","winter","pseudoword","pseudoword","j","true","",""
"null","<p style=""font-size: 50px;"">+</p>","null","html-keyboard-response","190","2.1.0","396114","F=YES, J=NO","w1o8yvjqxe","2","56","78","35","","","","","","","","","","","","","","","",""
"null","audio/beep-329314.mp3","null","audio-keyboard-response","191","2.1.0","397643","F=YES, J=NO","w1o8yvjqxe","2","56","78","35","","","","","","","","","","","","","","","",""
"null","audio/brain.wav","null","audio-keyboard-response","192","2.1.0","398113","F=YES, J=NO","w1o8yvjqxe","2","56","78","35","","","","","","","","","","","","","","","",""
"804","
          <p id=""word"" style=""font-size: 40px;"">flood</p>
          <p style=""font-size: 16px;"">F = YES &nbsp;&nbsp;&nbsp; J = NO</p>
        ","f","html-keyboard-response","193","2.1.0","398918","F=YES, J=NO","w1o8yvjqxe","2","56","78","35","","","","","","","","","flood","brain","metaphor","experimental","f","true","",""
"null","<p style=""font-size: 50px;"">+</p>","null","html-keyboard-response","194","2.1.0","399231","F=YES, J=NO","w1o8yvjqxe","2","56","78","35","","","","","","","","","","","","","","","",""
"null","audio/beep-329314.mp3","null","audio-keyboard-response","195","2.1.0","400763","F=YES, J=NO","w1o8yvjqxe","2","56","78","35","","","","","","","","","","","","","","","",""
"null","audio/foot1.wav","null","audio-keyboard-response","196","2.1.0","401333","F=YES, J=NO","w1o8yvjqxe","2","56","78","35","","","","","","","","","","","","","","","",""
"623","
          <p id=""word"" style=""font-size: 40px;"">thrutt</p>
          <p style=""font-size: 16px;"">F = YES &nbsp;&nbsp;&nbsp; J = NO</p>
        ","f","html-keyboard-response","197","2.1.0","401957","F=YES, J=NO","w1o8yvjqxe","2","56","78","35","","","","","","","","","thrutt","foot1","pseudoword","pseudoword","j","false","",""
"null","<p style=""font-size: 50px;"">+</p>","null","html-keyboard-response","198","2.1.0","402268","F=YES, J=NO","w1o8yvjqxe","2","56","78","35","","","","","","","","","","","","","","","",""
"null","audio/beep-329314.mp3","null","audio-keyboard-response","199","2.1.0","403803","F=YES, J=NO","w1o8yvjqxe","2","56","78","35","","","","","","","","","","","","","","","",""
"null","audio/fence.wav","null","audio-keyboard-response","200","2.1.0","404433","F=YES, J=NO","w1o8yvjqxe","2","56","78","35","","","","","","","","","","","","","","","",""
"723","
          <p id=""word"" style=""font-size: 40px;"">climb</p>
          <p style=""font-size: 16px;"">F = YES &nbsp;&nbsp;&nbsp; J = NO</p>
        ","f","html-keyboard-response","201","2.1.0","405157","F=YES, J=NO","w1o8yvjqxe","2","56","78","35","","","","","","","","","climb","fence","literal","experimental","f","true","",""
"null","<p style=""font-size: 50px;"">+</p>","null","html-keyboard-response","202","2.1.0","405459","F=YES, J=NO","w1o8yvjqxe","2","56","78","35","","","","","","","","","","","","","","","",""
"null","audio/beep-329314.mp3","null","audio-keyboard-response","203","2.1.0","406984","F=YES, J=NO","w1o8yvjqxe","2","56","78","35","","","","","","","","","","","","","","","",""
"null","audio/church1.wav","null","audio-keyboard-response","204","2.1.0","407674","F=YES, J=NO","w1o8yvjqxe","2","56","78","35","","","","","","","","","","","","","","","",""
"752","
          <p id=""word"" style=""font-size: 40px;"">cover</p>
          <p style=""font-size: 16px;"">F = YES &nbsp;&nbsp;&nbsp; J = NO</p>
        ","f","html-keyboard-response","205","2.1.0","408426","F=YES, J=NO","w1o8yvjqxe","2","56","78","35","","","","","","","","","cover","church1","unrelated","experimental","f","true","",""
"null","<p style=""font-size: 50px;"">+</p>","null","html-keyboard-response","206","2.1.0","408740","F=YES, J=NO","w1o8yvjqxe","2","56","78","35","","","","","","","","","","","","","","","",""
"null","audio/beep-329314.mp3","null","audio-keyboard-response","207","2.1.0","410265","F=YES, J=NO","w1o8yvjqxe","2","56","78","35","","","","","","","","","","","","","","","",""
"null","audio/farm1.wav","null","audio-keyboard-response","208","2.1.0","411234","F=YES, J=NO","w1o8yvjqxe","2","56","78","35","","","","","","","","","","","","","","","",""
"773","
          <p id=""word"" style=""font-size: 40px;"">catch</p>
          <p style=""font-size: 16px;"">F = YES &nbsp;&nbsp;&nbsp; J = NO</p>
        ","f","html-keyboard-response","209","2.1.0","412009","F=YES, J=NO","w1o8yvjqxe","2","56","78","35","","","","","","","","","catch","farm1","unrelated","experimental","f","true","",""
"null","<p style=""font-size: 50px;"">+</p>","null","html-keyboard-response","210","2.1.0","412321","F=YES, J=NO","w1o8yvjqxe","2","56","78","35","","","","","","","","","","","","","","","",""
"null","audio/beep-329314.mp3","null","audio-keyboard-response","211","2.1.0","413845","F=YES, J=NO","w1o8yvjqxe","2","56","78","35","","","","","","","","","","","","","","","",""
"null","audio/revenue1.wav","null","audio-keyboard-response","212","2.1.0","414514","F=YES, J=NO","w1o8yvjqxe","2","56","78","35","","","","","","","","","","","","","","","",""
"674","
          <p id=""word"" style=""font-size: 40px;"">grow</p>
          <p style=""font-size: 16px;"">F = YES &nbsp;&nbsp;&nbsp; J = NO</p>
        ","f","html-keyboard-response","213","2.1.0","415189","F=YES, J=NO","w1o8yvjqxe","2","56","78","35","","","","","","","","","grow","revenue1","metaphor","experimental","f","true","",""
"null","<p style=""font-size: 50px;"">+</p>","null","html-keyboard-response","214","2.1.0","415502","F=YES, J=NO","w1o8yvjqxe","2","56","78","35","","","","","","","","","","","","","","","",""
"null","audio/beep-329314.mp3","null","audio-keyboard-response","215","2.1.0","417044","F=YES, J=NO","w1o8yvjqxe","2","56","78","35","","","","","","","","","","","","","","","",""
"null","audio/ground.wav","null","audio-keyboard-response","216","2.1.0","417633","F=YES, J=NO","w1o8yvjqxe","2","56","78","35","","","","","","","","","","","","","","","",""
"554","
          <p id=""word"" style=""font-size: 40px;"">touch</p>
          <p style=""font-size: 16px;"">F = YES &nbsp;&nbsp;&nbsp; J = NO</p>
        ","f","html-keyboard-response","217","2.1.0","418188","F=YES, J=NO","w1o8yvjqxe","2","56","78","35","","","","","","","","","touch","ground","literal","experimental","f","true","",""
"null","<p style=""font-size: 50px;"">+</p>","null","html-keyboard-response","218","2.1.0","418499","F=YES, J=NO","w1o8yvjqxe","2","56","78","35","","","","","","","","","","","","","","","",""
"null","audio/beep-329314.mp3","null","audio-keyboard-response","219","2.1.0","420023","F=YES, J=NO","w1o8yvjqxe","2","56","78","35","","","","","","","","","","","","","","","",""
"null","audio/pain1.wav","null","audio-keyboard-response","220","2.1.0","420473","F=YES, J=NO","w1o8yvjqxe","2","56","78","35","","","","","","","","","","","","","","","",""
"1258","
          <p id=""word"" style=""font-size: 40px;"">tritted</p>
          <p style=""font-size: 16px;"">F = YES &nbsp;&nbsp;&nbsp; J = NO</p>
        ","j","html-keyboard-response","221","2.1.0","421732","F=YES, J=NO","w1o8yvjqxe","2","56","78","35","","","","","","","","","tritted","pain1","pseudoword","pseudoword","j","true","",""
"null","<p style=""font-size: 50px;"">+</p>","null","html-keyboard-response","222","2.1.0","422042","F=YES, J=NO","w1o8yvjqxe","2","56","78","35","","","","","","","","","","","","","","","",""
"null","audio/beep-329314.mp3","null","audio-keyboard-response","223","2.1.0","423564","F=YES, J=NO","w1o8yvjqxe","2","56","78","35","","","","","","","","","","","","","","","",""
"null","audio/corpse1.wav","null","audio-keyboard-response","224","2.1.0","424194","F=YES, J=NO","w1o8yvjqxe","2","56","78","35","","","","","","","","","","","","","","","",""
"846","
          <p id=""word"" style=""font-size: 40px;"">glonet</p>
          <p style=""font-size: 16px;"">F = YES &nbsp;&nbsp;&nbsp; J = NO</p>
        ","j","html-keyboard-response","225","2.1.0","425042","F=YES, J=NO","w1o8yvjqxe","2","56","78","35","","","","","","","","","glonet","corpse1","pseudoword","pseudoword","j","true","",""
"null","<p style=""font-size: 50px;"">+</p>","null","html-keyboard-response","226","2.1.0","425355","F=YES, J=NO","w1o8yvjqxe","2","56","78","35","","","","","","","","","","","","","","","",""
"null","audio/beep-329314.mp3","null","audio-keyboard-response","227","2.1.0","426883","F=YES, J=NO","w1o8yvjqxe","2","56","78","35","","","","","","","","","","","","","","","",""
"null","audio/sand.wav","null","audio-keyboard-response","228","2.1.0","427734","F=YES, J=NO","w1o8yvjqxe","2","56","78","35","","","","","","","","","","","","","","","",""
"625","
          <p id=""word"" style=""font-size: 40px;"">proted</p>
          <p style=""font-size: 16px;"">F = YES &nbsp;&nbsp;&nbsp; J = NO</p>
        ","f","html-keyboard-response","229","2.1.0","428361","F=YES, J=NO","w1o8yvjqxe","2","56","78","35","","","","","","","","","proted","sand","pseudoword","pseudoword","j","false","",""
"7320","<p>Excellent! You have finished block 1 of 8.</p>
                     <p>Feel free to take a 30 second break.</p>
                     <p>Press any key when you're ready to continue.</p>"," ","html-keyboard-response","230","2.1.0","435681","F=YES, J=NO","w1o8yvjqxe","2","56","78","35","","","","","","","","","","","","","","","",""
"1222","<p>Starting main block 2 of 8. Press any key to continue.</p>"," ","html-keyboard-response","231","2.1.0","436904","F=YES, J=NO","w1o8yvjqxe","2","56","78","35","","","","","","","","","","","","","","","",""
"null","<p style=""font-size: 50px;"">+</p>","null","html-keyboard-response","232","2.1.0","437215","F=YES, J=NO","w1o8yvjqxe","2","56","78","35","","","","","","","","","","","","","","","",""
"null","audio/beep-329314.mp3","null","audio-keyboard-response","233","2.1.0","438725","F=YES, J=NO","w1o8yvjqxe","2","56","78","35","","","","","","","","","","","","","","","",""
"null","audio/roof1.wav","null","audio-keyboard-response","234","2.1.0","439234","F=YES, J=NO","w1o8yvjqxe","2","56","78","35","","","","","","","","","","","","","","","",""
"751","
          <p id=""word"" style=""font-size: 40px;"">wronb</p>
          <p style=""font-size: 16px;"">F = YES &nbsp;&nbsp;&nbsp; J = NO</p>
        ","f","html-keyboard-response","235","2.1.0","439987","F=YES, J=NO","w1o8yvjqxe","2","56","78","35","","","","","","","","","wronb","roof1","pseudoword","pseudoword","j","false","",""
"null","<p style=""font-size: 50px;"">+</p>","null","html-keyboard-response","236","2.1.0","440291","F=YES, J=NO","w1o8yvjqxe","2","56","78","35","","","","","","","","","","","","","","","",""
"null","audio/beep-329314.mp3","null","audio-keyboard-response","237","2.1.0","441825","F=YES, J=NO","w1o8yvjqxe","2","56","78","35","","","","","","","","","","","","","","","",""
"null","audio/ankle1.wav","null","audio-keyboard-response","238","2.1.0","442335","F=YES, J=NO","w1o8yvjqxe","2","56","78","35","","","","","","","","","","","","","","","",""
"427","
          <p id=""word"" style=""font-size: 40px;"">switm</p>
          <p style=""font-size: 16px;"">F = YES &nbsp;&nbsp;&nbsp; J = NO</p>
        ","f","html-keyboard-response","239","2.1.0","442763","F=YES, J=NO","w1o8yvjqxe","2","56","78","35","","","","","","","","","switm","ankle1","pseudoword","pseudoword","j","false","",""
"null","<p style=""font-size: 50px;"">+</p>","null","html-keyboard-response","240","2.1.0","443065","F=YES, J=NO","w1o8yvjqxe","2","56","78","35","","","","","","","","","","","","","","","",""
"null","audio/beep-329314.mp3","null","audio-keyboard-response","241","2.1.0","444606","F=YES, J=NO","w1o8yvjqxe","2","56","78","35","","","","","","","","","","","","","","","",""
"null","audio/hotel1.wav","null","audio-keyboard-response","242","2.1.0","445235","F=YES, J=NO","w1o8yvjqxe","2","56","78","35","","","","","","","","","","","","","","","",""
"635","
          <p id=""word"" style=""font-size: 40px;"">flanter</p>
          <p style=""font-size: 16px;"">F = YES &nbsp;&nbsp;&nbsp; J = NO</p>
        ","f","html-keyboard-response","243","2.1.0","445871","F=YES, J=NO","w1o8yvjqxe","2","56","78","35","","","","","","","","","flanter","hotel1","pseudoword","pseudoword","j","false","",""
"null","<p style=""font-size: 50px;"">+</p>","null","html-keyboard-response","244","2.1.0","446175","F=YES, J=NO","w1o8yvjqxe","2","56","78","35","","","","","","","","","","","","","","","",""
"null","audio/beep-329314.mp3","null","audio-keyboard-response","245","2.1.0","447705","F=YES, J=NO","w1o8yvjqxe","2","56","78","35","","","","","","","","","","","","","","","",""
"null","audio/flaw.wav","null","audio-keyboard-response","246","2.1.0","448335","F=YES, J=NO","w1o8yvjqxe","2","56","78","35","","","","","","","","","","","","","","","",""
"767","
          <p id=""word"" style=""font-size: 40px;"">thwool</p>
          <p style=""font-size: 16px;"">F = YES &nbsp;&nbsp;&nbsp; J = NO</p>
        ","f","html-keyboard-response","247","2.1.0","449103","F=YES, J=NO","w1o8yvjqxe","2","56","78","35","","","","","","","","","thwool","flaw","pseudoword","pseudoword","j","false","",""
"null","<p style=""font-size: 50px;"">+</p>","null","html-keyboard-response","248","2.1.0","449418","F=YES, J=NO","w1o8yvjqxe","2","56","78","35","","","","","","","","","","","","","","","",""
"null","audio/beep-329314.mp3","null","audio-keyboard-response","249","2.1.0","450944","F=YES, J=NO","w1o8yvjqxe","2","56","78","35","","","","","","","","","","","","","","","",""
"null","audio/account1.wav","null","audio-keyboard-response","250","2.1.0","451614","F=YES, J=NO","w1o8yvjqxe","2","56","78","35","","","","","","","","","","","","","","","",""
"683","
          <p id=""word"" style=""font-size: 40px;"">paint</p>
          <p style=""font-size: 16px;"">F = YES &nbsp;&nbsp;&nbsp; J = NO</p>
        ","f","html-keyboard-response","251","2.1.0","452299","F=YES, J=NO","w1o8yvjqxe","2","56","78","35","","","","","","","","","paint","account1","filler","filler","f","true","",""
"null","<p style=""font-size: 50px;"">+</p>","null","html-keyboard-response","252","2.1.0","452608","F=YES, J=NO","w1o8yvjqxe","2","56","78","35","","","","","","","","","","","","","","","",""
"null","audio/beep-329314.mp3","null","audio-keyboard-response","253","2.1.0","454145","F=YES, J=NO","w1o8yvjqxe","2","56","78","35","","","","","","","","","","","","","","","",""
"null","audio/bush1.wav","null","audio-keyboard-response","254","2.1.0","454594","F=YES, J=NO","w1o8yvjqxe","2","56","78","35","","","","","","","","","","","","","","","",""
"668","
          <p id=""word"" style=""font-size: 40px;"">run</p>
          <p style=""font-size: 16px;"">F = YES &nbsp;&nbsp;&nbsp; J = NO</p>
        ","f","html-keyboard-response","255","2.1.0","455264","F=YES, J=NO","w1o8yvjqxe","2","56","78","35","","","","","","","","","run","bush1","unrelated","experimental","f","true","",""
"null","<p style=""font-size: 50px;"">+</p>","null","html-keyboard-response","256","2.1.0","455573","F=YES, J=NO","w1o8yvjqxe","2","56","78","35","","","","","","","","","","","","","","","",""
"null","audio/beep-329314.mp3","null","audio-keyboard-response","257","2.1.0","457105","F=YES, J=NO","w1o8yvjqxe","2","56","78","35","","","","","","","","","","","","","","","",""
"null","audio/radio1.wav","null","audio-keyboard-response","258","2.1.0","457793","F=YES, J=NO","w1o8yvjqxe","2","56","78","35","","","","","","","","","","","","","","","",""
"613","
          <p id=""word"" style=""font-size: 40px;"">spend</p>
          <p style=""font-size: 16px;"">F = YES &nbsp;&nbsp;&nbsp; J = NO</p>
        ","f","html-keyboard-response","259","2.1.0","458407","F=YES, J=NO","w1o8yvjqxe","2","56","78","35","","","","","","","","","spend","radio1","unrelated","experimental","f","true","",""
"null","<p style=""font-size: 50px;"">+</p>","null","html-keyboard-response","260","2.1.0","458716","F=YES, J=NO","w1o8yvjqxe","2","56","78","35","","","","","","","","","","","","","","","",""
"null","audio/beep-329314.mp3","null","audio-keyboard-response","261","2.1.0","460244","F=YES, J=NO","w1o8yvjqxe","2","56","78","35","","","","","","","","","","","","","","","",""
"null","audio/tunnel.wav","null","audio-keyboard-response","262","2.1.0","460674","F=YES, J=NO","w1o8yvjqxe","2","56","78","35","","","","","","","","","","","","","","","",""
"718","
          <p id=""word"" style=""font-size: 40px;"">gred</p>
          <p style=""font-size: 16px;"">F = YES &nbsp;&nbsp;&nbsp; J = NO</p>
        ","f","html-keyboard-response","263","2.1.0","461394","F=YES, J=NO","w1o8yvjqxe","2","56","78","35","","","","","","","","","gred","tunnel","pseudoword","pseudoword","j","false","",""
"null","<p style=""font-size: 50px;"">+</p>","null","html-keyboard-response","264","2.1.0","461698","F=YES, J=NO","w1o8yvjqxe","2","56","78","35","","","","","","","","","","","","","","","",""
"null","audio/beep-329314.mp3","null","audio-keyboard-response","265","2.1.0","463224","F=YES, J=NO","w1o8yvjqxe","2","56","78","35","","","","","","","","","","","","","","","",""
"null","audio/planet1.wav","null","audio-keyboard-response","266","2.1.0","463794","F=YES, J=NO","w1o8yvjqxe","2","56","78","35","","","","","","","","","","","","","","","",""
"655","
          <p id=""word"" style=""font-size: 40px;"">save</p>
          <p style=""font-size: 16px;"">F = YES &nbsp;&nbsp;&nbsp; J = NO</p>
        ","j","html-keyboard-response","267","2.1.0","464451","F=YES, J=NO","w1o8yvjqxe","2","56","78","35","","","","","","","","","save","planet1","metaphor","experimental","f","false","",""
"null","<p style=""font-size: 50px;"">+</p>","null","html-keyboard-response","268","2.1.0","464760","F=YES, J=NO","w1o8yvjqxe","2","56","78","35","","","","","","","","","","","","","","","",""
"null","audio/beep-329314.mp3","null","audio-keyboard-response","269","2.1.0","466285","F=YES, J=NO","w1o8yvjqxe","2","56","78","35","","","","","","","","","","","","","","","",""
"null","audio/cloud1.wav","null","audio-keyboard-response","270","2.1.0","467034","F=YES, J=NO","w1o8yvjqxe","2","56","78","35","","","","","","","","","","","","","","","",""
"726","
          <p id=""word"" style=""font-size: 40px;"">brotant</p>
          <p style=""font-size: 16px;"">F = YES &nbsp;&nbsp;&nbsp; J = NO</p>
        ","f","html-keyboard-response","271","2.1.0","467762","F=YES, J=NO","w1o8yvjqxe","2","56","78","35","","","","","","","","","brotant","cloud1","pseudoword","pseudoword","j","false","",""
"null","<p style=""font-size: 50px;"">+</p>","null","html-keyboard-response","272","2.1.0","468067","F=YES, J=NO","w1o8yvjqxe","2","56","78","35","","","","","","","","","","","","","","","",""
"null","audio/beep-329314.mp3","null","audio-keyboard-response","273","2.1.0","469605","F=YES, J=NO","w1o8yvjqxe","2","56","78","35","","","","","","","","","","","","","","","",""
"null","audio/heart1.wav","null","audio-keyboard-response","274","2.1.0","470334","F=YES, J=NO","w1o8yvjqxe","2","56","78","35","","","","","","","","","","","","","","","",""
"638","
          <p id=""word"" style=""font-size: 40px;"">dralm</p>
          <p style=""font-size: 16px;"">F = YES &nbsp;&nbsp;&nbsp; J = NO</p>
        ","j","html-keyboard-response","275","2.1.0","470974","F=YES, J=NO","w1o8yvjqxe","2","56","78","35","","","","","","","","","dralm","heart1","pseudoword","pseudoword","j","true","",""
"null","<p style=""font-size: 50px;"">+</p>","null","html-keyboard-response","276","2.1.0","471281","F=YES, J=NO","w1o8yvjqxe","2","56","78","35","","","","","","","","","","","","","","","",""
"null","audio/beep-329314.mp3","null","audio-keyboard-response","277","2.1.0","472805","F=YES, J=NO","w1o8yvjqxe","2","56","78","35","","","","","","","","","","","","","","","",""
"null","audio/life1.wav","null","audio-keyboard-response","278","2.1.0","473554","F=YES, J=NO","w1o8yvjqxe","2","56","78","35","","","","","","","","","","","","","","","",""
"781","
          <p id=""word"" style=""font-size: 40px;"">flimch</p>
          <p style=""font-size: 16px;"">F = YES &nbsp;&nbsp;&nbsp; J = NO</p>
        ","f","html-keyboard-response","279","2.1.0","474336","F=YES, J=NO","w1o8yvjqxe","2","56","78","35","","","","","","","","","flimch","life1","pseudoword","pseudoword","j","false","",""
"null","<p style=""font-size: 50px;"">+</p>","null","html-keyboard-response","280","2.1.0","474648","F=YES, J=NO","w1o8yvjqxe","2","56","78","35","","","","","","","","","","","","","","","",""
"null","audio/beep-329314.mp3","null","audio-keyboard-response","281","2.1.0","476184","F=YES, J=NO","w1o8yvjqxe","2","56","78","35","","","","","","","","","","","","","","","",""
"null","audio/desire.wav","null","audio-keyboard-response","282","2.1.0","476795","F=YES, J=NO","w1o8yvjqxe","2","56","78","35","","","","","","","","","","","","","","","",""
"678","
          <p id=""word"" style=""font-size: 40px;"">nophed</p>
          <p style=""font-size: 16px;"">F = YES &nbsp;&nbsp;&nbsp; J = NO</p>
        ","f","html-keyboard-response","283","2.1.0","477475","F=YES, J=NO","w1o8yvjqxe","2","56","78","35","","","","","","","","","nophed","desire","pseudoword","pseudoword","j","false","",""
"null","<p style=""font-size: 50px;"">+</p>","null","html-keyboard-response","284","2.1.0","477786","F=YES, J=NO","w1o8yvjqxe","2","56","78","35","","","","","","","","","","","","","","","",""
"null","audio/beep-329314.mp3","null","audio-keyboard-response","285","2.1.0","479325","F=YES, J=NO","w1o8yvjqxe","2","56","78","35","","","","","","","","","","","","","","","",""
"null","audio/ego.wav","null","audio-keyboard-response","286","2.1.0","479875","F=YES, J=NO","w1o8yvjqxe","2","56","78","35","","","","","","","","","","","","","","","",""
"968","
          <p id=""word"" style=""font-size: 40px;"">bruite</p>
          <p style=""font-size: 16px;"">F = YES &nbsp;&nbsp;&nbsp; J = NO</p>
        ","j","html-keyboard-response","287","2.1.0","480844","F=YES, J=NO","w1o8yvjqxe","2","56","78","35","","","","","","","","","bruite","ego","pseudoword","pseudoword","j","true","",""
"null","<p style=""font-size: 50px;"">+</p>","null","html-keyboard-response","288","2.1.0","481158","F=YES, J=NO","w1o8yvjqxe","2","56","78","35","","","","","","","","","","","","","","","",""
"null","audio/beep-329314.mp3","null","audio-keyboard-response","289","2.1.0","482685","F=YES, J=NO","w1o8yvjqxe","2","56","78","35","","","","","","","","","","","","","","","",""
"null","audio/scar.wav","null","audio-keyboard-response","290","2.1.0","483275","F=YES, J=NO","w1o8yvjqxe","2","56","78","35","","","","","","","","","","","","","","","",""
"772","
          <p id=""word"" style=""font-size: 40px;"">adelineate</p>
          <p style=""font-size: 16px;"">F = YES &nbsp;&nbsp;&nbsp; J = NO</p>
        ","j","html-keyboard-response","291","2.1.0","484048","F=YES, J=NO","w1o8yvjqxe","2","56","78","35","","","","","","","","","adelineate","scar","pseudoword","pseudoword","j","true","",""
"null","<p style=""font-size: 50px;"">+</p>","null","html-keyboard-response","292","2.1.0","484354","F=YES, J=NO","w1o8yvjqxe","2","56","78","35","","","","","","","","","","","","","","","",""
"null","audio/beep-329314.mp3","null","audio-keyboard-response","293","2.1.0","485884","F=YES, J=NO","w1o8yvjqxe","2","56","78","35","","","","","","","","","","","","","","","",""
"null","audio/dome.wav","null","audio-keyboard-response","294","2.1.0","486315","F=YES, J=NO","w1o8yvjqxe","2","56","78","35","","","","","","","","","","","","","","","",""
"813","
          <p id=""word"" style=""font-size: 40px;"">scrupliness</p>
          <p style=""font-size: 16px;"">F = YES &nbsp;&nbsp;&nbsp; J = NO</p>
        ","f","html-keyboard-response","295","2.1.0","487129","F=YES, J=NO","w1o8yvjqxe","2","56","78","35","","","","","","","","","scrupliness","dome","pseudoword","pseudoword","j","false","",""
"1486","<p>Excellent! You have finished block 2 of 8.</p>
                     <p>Feel free to take a 30 second break.</p>
                     <p>Press any key when you're ready to continue.</p>"," ","html-keyboard-response","296","2.1.0","488615","F=YES, J=NO","w1o8yvjqxe","2","56","78","35","","","","","","","","","","","","","","","",""
"1047","<p>Starting main block 3 of 8. Press any key to continue.</p>"," ","html-keyboard-response","297","2.1.0","489663","F=YES, J=NO","w1o8yvjqxe","2","56","78","35","","","","","","","","","","","","","","","",""
"null","<p style=""font-size: 50px;"">+</p>","null","html-keyboard-response","298","2.1.0","489980","F=YES, J=NO","w1o8yvjqxe","2","56","78","35","","","","","","","","","","","","","","","",""
"null","audio/beep-329314.mp3","null","audio-keyboard-response","299","2.1.0","491505","F=YES, J=NO","w1o8yvjqxe","2","56","78","35","","","","","","","","","","","","","","","",""
"null","audio/hotel1.wav","null","audio-keyboard-response","300","2.1.0","492114","F=YES, J=NO","w1o8yvjqxe","2","56","78","35","","","","","","","","","","","","","","","",""
"424","
          <p id=""word"" style=""font-size: 40px;"">spread</p>
          <p style=""font-size: 16px;"">F = YES &nbsp;&nbsp;&nbsp; J = NO</p>
        ","f","html-keyboard-response","301","2.1.0","492541","F=YES, J=NO","w1o8yvjqxe","2","56","78","35","","","","","","","","","spread","hotel1","unrelated","experimental","f","true","",""
"null","<p style=""font-size: 50px;"">+</p>","null","html-keyboard-response","302","2.1.0","492849","F=YES, J=NO","w1o8yvjqxe","2","56","78","35","","","","","","","","","","","","","","","",""
"null","audio/beep-329314.mp3","null","audio-keyboard-response","303","2.1.0","494383","F=YES, J=NO","w1o8yvjqxe","2","56","78","35","","","","","","","","","","","","","","","",""
"null","audio/baby.wav","null","audio-keyboard-response","304","2.1.0","495233","F=YES, J=NO","w1o8yvjqxe","2","56","78","35","","","","","","","","","","","","","","","",""
"861","
          <p id=""word"" style=""font-size: 40px;"">lift</p>
          <p style=""font-size: 16px;"">F = YES &nbsp;&nbsp;&nbsp; J = NO</p>
        ","f","html-keyboard-response","305","2.1.0","496096","F=YES, J=NO","w1o8yvjqxe","2","56","78","35","","","","","","","","","lift","baby","filler","filler","f","true","",""
"null","<p style=""font-size: 50px;"">+</p>","null","html-keyboard-response","306","2.1.0","496402","F=YES, J=NO","w1o8yvjqxe","2","56","78","35","","","","","","","","","","","","","","","",""
"null","audio/beep-329314.mp3","null","audio-keyboard-response","307","2.1.0","497925","F=YES, J=NO","w1o8yvjqxe","2","56","78","35","","","","","","","","","","","","","","","",""
"null","audio/window1.wav","null","audio-keyboard-response","308","2.1.0","498635","F=YES, J=NO","w1o8yvjqxe","2","56","78","35","","","","","","","","","","","","","","","",""
"335","
          <p id=""word"" style=""font-size: 40px;"">toss</p>
          <p style=""font-size: 16px;"">F = YES &nbsp;&nbsp;&nbsp; J = NO</p>
        ","f","html-keyboard-response","309","2.1.0","498971","F=YES, J=NO","w1o8yvjqxe","2","56","78","35","","","","","","","","","toss","window1","filler","filler","f","true","",""
"null","<p style=""font-size: 50px;"">+</p>","null","html-keyboard-response","310","2.1.0","499275","F=YES, J=NO","w1o8yvjqxe","2","56","78","35","","","","","","","","","","","","","","","",""
"null","audio/beep-329314.mp3","null","audio-keyboard-response","311","2.1.0","500804","F=YES, J=NO","w1o8yvjqxe","2","56","78","35","","","","","","","","","","","","","","","",""
"null","audio/handle.wav","null","audio-keyboard-response","312","2.1.0","505094","F=YES, J=NO","w1o8yvjqxe","2","56","78","35","","","","","","","","","","","","","","","",""
"594","
          <p id=""word"" style=""font-size: 40px;"">moutes</p>
          <p style=""font-size: 16px;"">F = YES &nbsp;&nbsp;&nbsp; J = NO</p>
        ","j","html-keyboard-response","313","2.1.0","505690","F=YES, J=NO","w1o8yvjqxe","2","56","78","35","","","","","","","","","moutes","handle","pseudoword","pseudoword","j","true","",""
"null","<p style=""font-size: 50px;"">+</p>","null","html-keyboard-response","314","2.1.0","506004","F=YES, J=NO","w1o8yvjqxe","2","56","78","35","","","","","","","","","","","","","","","",""
"null","audio/beep-329314.mp3","null","audio-keyboard-response","315","2.1.0","507544","F=YES, J=NO","w1o8yvjqxe","2","56","78","35","","","","","","","","","","","","","","","",""
"null","audio/show.wav","null","audio-keyboard-response","316","2.1.0","508335","F=YES, J=NO","w1o8yvjqxe","2","56","78","35","","","","","","","","","","","","","","","",""
"550","
          <p id=""word"" style=""font-size: 40px;"">smark</p>
          <p style=""font-size: 16px;"">F = YES &nbsp;&nbsp;&nbsp; J = NO</p>
        ","f","html-keyboard-response","317","2.1.0","508886","F=YES, J=NO","w1o8yvjqxe","2","56","78","35","","","","","","","","","smark","show","pseudoword","pseudoword","j","false","",""
"null","<p style=""font-size: 50px;"">+</p>","null","html-keyboard-response","318","2.1.0","509187","F=YES, J=NO","w1o8yvjqxe","2","56","78","35","","","","","","","","","","","","","","","",""
"null","audio/beep-329314.mp3","null","audio-keyboard-response","319","2.1.0","510723","F=YES, J=NO","w1o8yvjqxe","2","56","78","35","","","","","","","","","","","","","","","",""
"null","audio/table1.wav","null","audio-keyboard-response","320","2.1.0","511213","F=YES, J=NO","w1o8yvjqxe","2","56","78","35","","","","","","","","","","","","","","","",""
"655","
          <p id=""word"" style=""font-size: 40px;"">clear</p>
          <p style=""font-size: 16px;"">F = YES &nbsp;&nbsp;&nbsp; J = NO</p>
        ","f","html-keyboard-response","321","2.1.0","511870","F=YES, J=NO","w1o8yvjqxe","2","56","78","35","","","","","","","","","clear","table1","literal","experimental","f","true","",""
"null","<p style=""font-size: 50px;"">+</p>","null","html-keyboard-response","322","2.1.0","512181","F=YES, J=NO","w1o8yvjqxe","2","56","78","35","","","","","","","","","","","","","","","",""
"null","audio/beep-329314.mp3","null","audio-keyboard-response","323","2.1.0","513724","F=YES, J=NO","w1o8yvjqxe","2","56","78","35","","","","","","","","","","","","","","","",""
"null","audio/ship.wav","null","audio-keyboard-response","324","2.1.0","514275","F=YES, J=NO","w1o8yvjqxe","2","56","78","35","","","","","","","","","","","","","","","",""
"526","
          <p id=""word"" style=""font-size: 40px;"">scrap</p>
          <p style=""font-size: 16px;"">F = YES &nbsp;&nbsp;&nbsp; J = NO</p>
        ","f","html-keyboard-response","325","2.1.0","514803","F=YES, J=NO","w1o8yvjqxe","2","56","78","35","","","","","","","","","scrap","ship","literal","experimental","f","true","",""
"null","<p style=""font-size: 50px;"">+</p>","null","html-keyboard-response","326","2.1.0","515116","F=YES, J=NO","w1o8yvjqxe","2","56","78","35","","","","","","","","","","","","","","","",""
"null","audio/beep-329314.mp3","null","audio-keyboard-response","327","2.1.0","516645","F=YES, J=NO","w1o8yvjqxe","2","56","78","35","","","","","","","","","","","","","","","",""
"null","audio/roof1.wav","null","audio-keyboard-response","328","2.1.0","517154","F=YES, J=NO","w1o8yvjqxe","2","56","78","35","","","","","","","","","","","","","","","",""
"796","
          <p id=""word"" style=""font-size: 40px;"">construct</p>
          <p style=""font-size: 16px;"">F = YES &nbsp;&nbsp;&nbsp; J = NO</p>
        ","f","html-keyboard-response","329","2.1.0","517952","F=YES, J=NO","w1o8yvjqxe","2","56","78","35","","","","","","","","","construct","roof1","literal","experimental","f","true","",""
"null","<p style=""font-size: 50px;"">+</p>","null","html-keyboard-response","330","2.1.0","518262","F=YES, J=NO","w1o8yvjqxe","2","56","78","35","","","","","","","","","","","","","","","",""
"null","audio/beep-329314.mp3","null","audio-keyboard-response","331","2.1.0","519805","F=YES, J=NO","w1o8yvjqxe","2","56","78","35","","","","","","","","","","","","","","","",""
"null","audio/tax1.wav","null","audio-keyboard-response","332","2.1.0","520934","F=YES, J=NO","w1o8yvjqxe","2","56","78","35","","","","","","","","","","","","","","","",""
"726","
          <p id=""word"" style=""font-size: 40px;"">snate</p>
          <p style=""font-size: 16px;"">F = YES &nbsp;&nbsp;&nbsp; J = NO</p>
        ","j","html-keyboard-response","333","2.1.0","521662","F=YES, J=NO","w1o8yvjqxe","2","56","78","35","","","","","","","","","snate","tax1","pseudoword","pseudoword","j","true","",""
"null","<p style=""font-size: 50px;"">+</p>","null","html-keyboard-response","334","2.1.0","521964","F=YES, J=NO","w1o8yvjqxe","2","56","78","35","","","","","","","","","","","","","","","",""
"null","audio/beep-329314.mp3","null","audio-keyboard-response","335","2.1.0","523504","F=YES, J=NO","w1o8yvjqxe","2","56","78","35","","","","","","","","","","","","","","","",""
"null","audio/emotion.wav","null","audio-keyboard-response","336","2.1.0","524615","F=YES, J=NO","w1o8yvjqxe","2","56","78","35","","","","","","","","","","","","","","","",""
"897","
          <p id=""word"" style=""font-size: 40px;"">devering</p>
          <p style=""font-size: 16px;"">F = YES &nbsp;&nbsp;&nbsp; J = NO</p>
        ","f","html-keyboard-response","337","2.1.0","525514","F=YES, J=NO","w1o8yvjqxe","2","56","78","35","","","","","","","","","devering","emotion","pseudoword","pseudoword","j","false","",""
"null","<p style=""font-size: 50px;"">+</p>","null","html-keyboard-response","338","2.1.0","525828","F=YES, J=NO","w1o8yvjqxe","2","56","78","35","","","","","","","","","","","","","","","",""
"null","audio/beep-329314.mp3","null","audio-keyboard-response","339","2.1.0","527365","F=YES, J=NO","w1o8yvjqxe","2","56","78","35","","","","","","","","","","","","","","","",""
"null","audio/topic.wav","null","audio-keyboard-response","340","2.1.0","527935","F=YES, J=NO","w1o8yvjqxe","2","56","78","35","","","","","","","","","","","","","","","",""
"412","
          <p id=""word"" style=""font-size: 40px;"">infortuitist</p>
          <p style=""font-size: 16px;"">F = YES &nbsp;&nbsp;&nbsp; J = NO</p>
        ","f","html-keyboard-response","341","2.1.0","528348","F=YES, J=NO","w1o8yvjqxe","2","56","78","35","","","","","","","","","infortuitist","topic","pseudoword","pseudoword","j","false","",""
"null","<p style=""font-size: 50px;"">+</p>","null","html-keyboard-response","342","2.1.0","528652","F=YES, J=NO","w1o8yvjqxe","2","56","78","35","","","","","","","","","","","","","","","",""
"null","audio/beep-329314.mp3","null","audio-keyboard-response","343","2.1.0","530185","F=YES, J=NO","w1o8yvjqxe","2","56","78","35","","","","","","","","","","","","","","","",""
"null","audio/truth1.wav","null","audio-keyboard-response","344","2.1.0","530734","F=YES, J=NO","w1o8yvjqxe","2","56","78","35","","","","","","","","","","","","","","","",""
"1072","
          <p id=""word"" style=""font-size: 40px;"">expose</p>
          <p style=""font-size: 16px;"">F = YES &nbsp;&nbsp;&nbsp; J = NO</p>
        ","j","html-keyboard-response","345","2.1.0","531808","F=YES, J=NO","w1o8yvjqxe","2","56","78","35","","","","","","","","","expose","truth1","metaphor","experimental","f","false","",""
"null","<p style=""font-size: 50px;"">+</p>","null","html-keyboard-response","346","2.1.0","532116","F=YES, J=NO","w1o8yvjqxe","2","56","78","35","","","","","","","","","","","","","","","",""
"null","audio/beep-329314.mp3","null","audio-keyboard-response","347","2.1.0","533645","F=YES, J=NO","w1o8yvjqxe","2","56","78","35","","","","","","","","","","","","","","","",""
"null","audio/trust.wav","null","audio-keyboard-response","348","2.1.0","534875","F=YES, J=NO","w1o8yvjqxe","2","56","78","35","","","","","","","","","","","","","","","",""
"859","
          <p id=""word"" style=""font-size: 40px;"">swint</p>
          <p style=""font-size: 16px;"">F = YES &nbsp;&nbsp;&nbsp; J = NO</p>
        ","f","html-keyboard-response","349","2.1.0","535735","F=YES, J=NO","w1o8yvjqxe","2","56","78","35","","","","","","","","","swint","trust","pseudoword","pseudoword","j","false","",""
"null","<p style=""font-size: 50px;"">+</p>","null","html-keyboard-response","350","2.1.0","536043","F=YES, J=NO","w1o8yvjqxe","2","56","78","35","","","","","","","","","","","","","","","",""
"null","audio/beep-329314.mp3","null","audio-keyboard-response","351","2.1.0","537584","F=YES, J=NO","w1o8yvjqxe","2","56","78","35","","","","","","","","","","","","","","","",""
"null","audio/haste1.wav","null","audio-keyboard-response","352","2.1.0","538275","F=YES, J=NO","w1o8yvjqxe","2","56","78","35","","","","","","","","","","","","","","","",""
"701","
          <p id=""word"" style=""font-size: 40px;"">coraconate</p>
          <p style=""font-size: 16px;"">F = YES &nbsp;&nbsp;&nbsp; J = NO</p>
        ","j","html-keyboard-response","353","2.1.0","538978","F=YES, J=NO","w1o8yvjqxe","2","56","78","35","","","","","","","","","coraconate","haste1","pseudoword","pseudoword","j","true","",""
"null","<p style=""font-size: 50px;"">+</p>","null","html-keyboard-response","354","2.1.0","539287","F=YES, J=NO","w1o8yvjqxe","2","56","78","35","","","","","","","","","","","","","","","",""
"null","audio/beep-329314.mp3","null","audio-keyboard-response","355","2.1.0","540823","F=YES, J=NO","w1o8yvjqxe","2","56","78","35","","","","","","","","","","","","","","","",""
"null","audio/mood1.wav","null","audio-keyboard-response","356","2.1.0","541754","F=YES, J=NO","w1o8yvjqxe","2","56","78","35","","","","","","","","","","","","","","","",""
"680","
          <p id=""word"" style=""font-size: 40px;"">give</p>
          <p style=""font-size: 16px;"">F = YES &nbsp;&nbsp;&nbsp; J = NO</p>
        ","f","html-keyboard-response","357","2.1.0","542436","F=YES, J=NO","w1o8yvjqxe","2","56","78","35","","","","","","","","","give","mood1","unrelated","experimental","f","true","",""
"null","<p style=""font-size: 50px;"">+</p>","null","html-keyboard-response","358","2.1.0","542746","F=YES, J=NO","w1o8yvjqxe","2","56","78","35","","","","","","","","","","","","","","","",""
"null","audio/beep-329314.mp3","null","audio-keyboard-response","359","2.1.0","544285","F=YES, J=NO","w1o8yvjqxe","2","56","78","35","","","","","","","","","","","","","","","",""
"null","audio/grass.wav","null","audio-keyboard-response","360","2.1.0","544914","F=YES, J=NO","w1o8yvjqxe","2","56","78","35","","","","","","","","","","","","","","","",""
"737","
          <p id=""word"" style=""font-size: 40px;"">cut</p>
          <p style=""font-size: 16px;"">F = YES &nbsp;&nbsp;&nbsp; J = NO</p>
        ","f","html-keyboard-response","361","2.1.0","545652","F=YES, J=NO","w1o8yvjqxe","2","56","78","35","","","","","","","","","cut","grass","literal","experimental","f","true","",""
"1097","<p>Excellent! You have finished block 3 of 8.</p>
                     <p>Feel free to take a 30 second break.</p>
                     <p>Press any key when you're ready to continue.</p>"," ","html-keyboard-response","362","2.1.0","546749","F=YES, J=NO","w1o8yvjqxe","2","56","78","35","","","","","","","","","","","","","","","",""
"484","<p>Starting main block 4 of 8. Press any key to continue.</p>"," ","html-keyboard-response","363","2.1.0","547235","F=YES, J=NO","w1o8yvjqxe","2","56","78","35","","","","","","","","","","","","","","","",""
"null","<p style=""font-size: 50px;"">+</p>","null","html-keyboard-response","364","2.1.0","547541","F=YES, J=NO","w1o8yvjqxe","2","56","78","35","","","","","","","","","","","","","","","",""
"null","audio/beep-329314.mp3","null","audio-keyboard-response","365","2.1.0","549064","F=YES, J=NO","w1o8yvjqxe","2","56","78","35","","","","","","","","","","","","","","","",""
"null","audio/meal.wav","null","audio-keyboard-response","366","2.1.0","549513","F=YES, J=NO","w1o8yvjqxe","2","56","78","35","","","","","","","","","","","","","","","",""
"1226","
          <p id=""word"" style=""font-size: 40px;"">gallite</p>
          <p style=""font-size: 16px;"">F = YES &nbsp;&nbsp;&nbsp; J = NO</p>
        ","j","html-keyboard-response","367","2.1.0","550740","F=YES, J=NO","w1o8yvjqxe","2","56","78","35","","","","","","","","","gallite","meal","pseudoword","pseudoword","j","true","",""
"null","<p style=""font-size: 50px;"">+</p>","null","html-keyboard-response","368","2.1.0","551050","F=YES, J=NO","w1o8yvjqxe","2","56","78","35","","","","","","","","","","","","","","","",""
"null","audio/beep-329314.mp3","null","audio-keyboard-response","369","2.1.0","552585","F=YES, J=NO","w1o8yvjqxe","2","56","78","35","","","","","","","","","","","","","","","",""
"null","audio/sugar1.wav","null","audio-keyboard-response","370","2.1.0","553533","F=YES, J=NO","w1o8yvjqxe","2","56","78","35","","","","","","","","","","","","","","","",""
"440","
          <p id=""word"" style=""font-size: 40px;"">glung</p>
          <p style=""font-size: 16px;"">F = YES &nbsp;&nbsp;&nbsp; J = NO</p>
        ","f","html-keyboard-response","371","2.1.0","553974","F=YES, J=NO","w1o8yvjqxe","2","56","78","35","","","","","","","","","glung","sugar1","pseudoword","pseudoword","j","false","",""
"null","<p style=""font-size: 50px;"">+</p>","null","html-keyboard-response","372","2.1.0","554275","F=YES, J=NO","w1o8yvjqxe","2","56","78","35","","","","","","","","","","","","","","","",""
"null","audio/beep-329314.mp3","null","audio-keyboard-response","373","2.1.0","555805","F=YES, J=NO","w1o8yvjqxe","2","56","78","35","","","","","","","","","","","","","","","",""
"null","audio/neck.wav","null","audio-keyboard-response","374","2.1.0","556353","F=YES, J=NO","w1o8yvjqxe","2","56","78","35","","","","","","","","","","","","","","","",""
"619","
          <p id=""word"" style=""font-size: 40px;"">werling</p>
          <p style=""font-size: 16px;"">F = YES &nbsp;&nbsp;&nbsp; J = NO</p>
        ","j","html-keyboard-response","375","2.1.0","556973","F=YES, J=NO","w1o8yvjqxe","2","56","78","35","","","","","","","","","werling","neck","pseudoword","pseudoword","j","true","",""
"null","<p style=""font-size: 50px;"">+</p>","null","html-keyboard-response","376","2.1.0","557287","F=YES, J=NO","w1o8yvjqxe","2","56","78","35","","","","","","","","","","","","","","","",""
"null","audio/beep-329314.mp3","null","audio-keyboard-response","377","2.1.0","558823","F=YES, J=NO","w1o8yvjqxe","2","56","78","35","","","","","","","","","","","","","","","",""
"null","audio/gift1.wav","null","audio-keyboard-response","378","2.1.0","559353","F=YES, J=NO","w1o8yvjqxe","2","56","78","35","","","","","","","","","","","","","","","",""
"552","
          <p id=""word"" style=""font-size: 40px;"">protsh</p>
          <p style=""font-size: 16px;"">F = YES &nbsp;&nbsp;&nbsp; J = NO</p>
        ","f","html-keyboard-response","379","2.1.0","559907","F=YES, J=NO","w1o8yvjqxe","2","56","78","35","","","","","","","","","protsh","gift1","pseudoword","pseudoword","j","false","",""
"null","<p style=""font-size: 50px;"">+</p>","null","html-keyboard-response","380","2.1.0","560212","F=YES, J=NO","w1o8yvjqxe","2","56","78","35","","","","","","","","","","","","","","","",""
"null","audio/beep-329314.mp3","null","audio-keyboard-response","381","2.1.0","561743","F=YES, J=NO","w1o8yvjqxe","2","56","78","35","","","","","","","","","","","","","","","",""
"null","audio/cave1.wav","null","audio-keyboard-response","382","2.1.0","562634","F=YES, J=NO","w1o8yvjqxe","2","56","78","35","","","","","","","","","","","","","","","",""
"539","
          <p id=""word"" style=""font-size: 40px;"">blacket</p>
          <p style=""font-size: 16px;"">F = YES &nbsp;&nbsp;&nbsp; J = NO</p>
        ","f","html-keyboard-response","383","2.1.0","563174","F=YES, J=NO","w1o8yvjqxe","2","56","78","35","","","","","","","","","blacket","cave1","pseudoword","pseudoword","j","false","",""
"null","<p style=""font-size: 50px;"">+</p>","null","html-keyboard-response","384","2.1.0","563489","F=YES, J=NO","w1o8yvjqxe","2","56","78","35","","","","","","","","","","","","","","","",""
"null","audio/beep-329314.mp3","null","audio-keyboard-response","385","2.1.0","565025","F=YES, J=NO","w1o8yvjqxe","2","56","78","35","","","","","","","","","","","","","","","",""
"null","audio/bishop1.wav","null","audio-keyboard-response","386","2.1.0","566054","F=YES, J=NO","w1o8yvjqxe","2","56","78","35","","","","","","","","","","","","","","","",""
"717","
          <p id=""word"" style=""font-size: 40px;"">play</p>
          <p style=""font-size: 16px;"">F = YES &nbsp;&nbsp;&nbsp; J = NO</p>
        ","f","html-keyboard-response","387","2.1.0","566773","F=YES, J=NO","w1o8yvjqxe","2","56","78","35","","","","","","","","","play","bishop1","filler","filler","f","true","",""
"null","<p style=""font-size: 50px;"">+</p>","null","html-keyboard-response","388","2.1.0","567085","F=YES, J=NO","w1o8yvjqxe","2","56","78","35","","","","","","","","","","","","","","","",""
"null","audio/beep-329314.mp3","null","audio-keyboard-response","389","2.1.0","568625","F=YES, J=NO","w1o8yvjqxe","2","56","78","35","","","","","","","","","","","","","","","",""
"null","audio/noise1.wav","null","audio-keyboard-response","390","2.1.0","569234","F=YES, J=NO","w1o8yvjqxe","2","56","78","35","","","","","","","","","","","","","","","",""
"426","
          <p id=""word"" style=""font-size: 40px;"">build</p>
          <p style=""font-size: 16px;"">F = YES &nbsp;&nbsp;&nbsp; J = NO</p>
