"rt","stimulus","response","trial_type","trial_index","plugin_version","time_elapsed","response_mapping","subject_id","list_index","lextale_score","lextale_word_score","lextale_nonword_score","success","timeout","failed_images","failed_audio","failed_video","task","isWord","isDummy","target","prime","prime_type","stimulus_type","correct_response","correct","section","question_order"
"77897","
    <div style=""max-width: 800px; margin: auto; text-align: left;"">
      <h2>STANFORD UNIVERSITY</h2>
      <h3>Research Information Sheet</h3>
      <p><strong>Protocol Director:</strong> Robert Hawkins<br>
      <strong>Protocol Title:</strong> Communication and social cognition in natural audiovisual contexts<br>
      <strong>IRB#:</strong> 77226</p>

      <p><strong>DESCRIPTION:</strong> You are invited to participate in a research study about language and communication. The purpose of the research is to understand how you interact and communicate with other people in naturalistic settings as a fluent English speaker. This research will be conducted through the Prolific platform, including participants from the US, UK, and Canada. If you decide to participate in this research, you will play a communication game in a group with one or more partners.</p>

      <p><strong>TIME INVOLVEMENT:</strong> The task will last the amount of time advertised on Prolific. You are free to withdraw from the study at any time.</p>

      <p><strong>RISKS AND BENEFITS:</strong> You may become frustrated if your partner gets distracted, or experience discomfort if other participants in your group send text that is inappropriate for the task. We ask you to please be respectful of other participants you might be interacting with to mitigate these risks. You may also experience discomfort when being asked to discuss or challenge emotionally salient political beliefs. Study data will be stored securely, in compliance with Stanford University standards, minimizing the risk of confidentiality breach. This study advances our scientific understanding of how people communicate and collaborate in naturalistic settings. This study may lead to further insights about what can go wrong in teamwork, suggest potential interventions to overcome these barriers, and help to develop assistive technologies that collaborate with human partners. We cannot and do not guarantee or promise that you will receive any benefits from this study.</p>

      <p><strong>PAYMENTS:</strong> You will receive payment in the amount advertised on Prolific. If you do not complete this study, you will receive prorated payment based on the time that you have spent. Additionally, you may be eligible for bonus payments as described in the instructions.</p>

      <p><strong>PARTICIPANT’S RIGHTS:</strong> If you have read this form and have decided to participate in this project, please understand your participation is voluntary and you have the right to withdraw your consent or discontinue participation at any time without penalty or loss of benefits to which you are otherwise entitled. The alternative is not to participate. You have the right to refuse to answer particular questions. The results of this research study may be presented at scientific or professional meetings or published in scientific journals. Your individual privacy will be maintained in all published and written data resulting from the study. In accordance with scientific norms, the data from this study may be used or shared with other researchers for future research (after removing personally identifying information) without additional consent from you.</p>

      <p><strong>CONTACT INFORMATION:</strong><br>
      Questions: If you have any questions, concerns or complaints about this research, its procedures, risks and benefits, contact the Protocol Director, Robert Hawkins (<a href=""mailto:rdhawkins@stanford.edu"">rdhawkins@stanford.edu</a>, 217-549-6923).<br>
      Independent Contact: If you are not satisfied with how this study is being conducted, or if you have any concerns, complaints, or general questions about the research or your rights as a participant, please contact the Stanford Institutional Review Board (IRB) to speak to someone independent of the research team at 650-723-2480 or toll free at 1-866-680-2906, or email at <a href=""mailto:irbnon-med@stanford.edu"">irbnon-med@stanford.edu</a>. You can also write to the Stanford IRB, Stanford University, 1705 El Camino Real, Palo Alto, CA 94306.</p>

      <p><strong>Please save or print a copy of this page for your records.</strong></p>
      <p>If you agree to participate in this research, click ""Continue"" below.</p>
    </div>
  ","0","html-button-response","0","2.1.0","77908","F=YES, J=NO","w44kz439vj","1","75","85","65","","","","","","","","","","","","","","","",""
"36236","
    <div style=""max-width: 800px; margin: auto; text-align: left;"">
      <h2>Welcome!</h2>
      <p>Thank you for participating in this study. The experiment consists of three parts:</p>
      <ol>
        <li>An English vocabulary test</li>
        <li>A main task in which you will hear and see words, and decide whether the written word is a real English word</li>
        <li>A brief survey about your background</li>
      </ol>
      <p>Each part will be introduced before it begins.</p>
      <p>Please make sure you are in a quiet environment and can hear audio clearly for the final task.</p>
      <p style=""margin-top: 2em;"">Press any key to begin.</p>
    </div>
  "," ","html-keyboard-response","1","2.1.0","114147","F=YES, J=NO","w44kz439vj","1","75","85","65","","","","","","","","","","","","","","","",""
"","","","preload","2","2.1.0","117145","F=YES, J=NO","w44kz439vj","1","75","85","65","true","false","[]","[]","[]","","","","","","","","","","",""
"9837","
    <div style=""max-width: 800px; margin: auto; text-align: left;"">
      <h2>Part 1: Vocabulary Test</h2>
      <p>You will now complete the first part of the study: a short English vocabulary test.</p>
      <p>This test is called <strong>LexTALE</strong> and helps us get a general sense of your English proficiency.</p>
      <p style=""margin-top: 2em;"">Press any key to continue.</p>
    </div>
  "," ","html-keyboard-response","3","2.1.0","126983","F=YES, J=NO","w44kz439vj","1","75","85","65","","","","","","","","","","","","","","","",""
"24763","
    <div style=""max-width: 800px; margin: auto; text-align: left;"">
      <h2>LexTALE Vocabulary Test</h2>
      <p>In this test, you will see a series of letter strings—one at a time.</p>
      <p>Your task is to decide whether each string is a real English word.</p>
      <p><strong>Key responses:</strong></p>
      <ul>
        <li><strong>F</strong> = YES (real English word)</li>
        <li><strong>J</strong> = NO (not a real English word)</li>
      </ul>
      <p>There is no time limit, but please try to be accurate.</p>
      <p style=""margin-top: 2em;"">Press any key to begin.</p>
    </div>
  "," ","html-keyboard-response","4","2.1.0","151747","F=YES, J=NO","w44kz439vj","1","75","85","65","","","","","","","","","","","","","","","",""
"2573","
  <p style=""font-size: 40px;"">platery</p>
  <p style=""font-size: 16px;"">F = YES &nbsp;&nbsp;&nbsp; J = NO</p>
","f","html-keyboard-response","5","2.1.0","154322","F=YES, J=NO","w44kz439vj","1","75","85","65","","","","","","lextale","false","true","","","","","","","",""
"1863","
  <p style=""font-size: 40px;"">denial</p>
  <p style=""font-size: 16px;"">F = YES &nbsp;&nbsp;&nbsp; J = NO</p>
","f","html-keyboard-response","6","2.1.0","156186","F=YES, J=NO","w44kz439vj","1","75","85","65","","","","","","lextale","true","true","","","","","","","",""
"2444","
  <p style=""font-size: 40px;"">marrit</p>
  <p style=""font-size: 16px;"">F = YES &nbsp;&nbsp;&nbsp; J = NO</p>
","j","html-keyboard-response","7","2.1.0","158632","F=YES, J=NO","w44kz439vj","1","75","85","65","","","","","","lextale","false","true","","","","","","","",""
"1200","
  <p style=""font-size: 40px;"">bottle</p>
  <p style=""font-size: 16px;"">F = YES &nbsp;&nbsp;&nbsp; J = NO</p>
","f","html-keyboard-response","8","2.1.0","159832","F=YES, J=NO","w44kz439vj","1","75","85","65","","","","","","lextale","true","false","","","","","","","",""
"1539","
  <p style=""font-size: 40px;"">birst</p>
  <p style=""font-size: 16px;"">F = YES &nbsp;&nbsp;&nbsp; J = NO</p>
","j","html-keyboard-response","9","2.1.0","161372","F=YES, J=NO","w44kz439vj","1","75","85","65","","","","","","lextale","false","false","","","","","","","",""
"869","
  <p style=""font-size: 40px;"">envy</p>
  <p style=""font-size: 16px;"">F = YES &nbsp;&nbsp;&nbsp; J = NO</p>
","f","html-keyboard-response","10","2.1.0","162242","F=YES, J=NO","w44kz439vj","1","75","85","65","","","","","","lextale","true","false","","","","","","","",""
"1498","
  <p style=""font-size: 40px;"">brang</p>
  <p style=""font-size: 16px;"">F = YES &nbsp;&nbsp;&nbsp; J = NO</p>
","j","html-keyboard-response","11","2.1.0","163741","F=YES, J=NO","w44kz439vj","1","75","85","65","","","","","","lextale","false","false","","","","","","","",""
"1173","
  <p style=""font-size: 40px;"">huge</p>
  <p style=""font-size: 16px;"">F = YES &nbsp;&nbsp;&nbsp; J = NO</p>
","f","html-keyboard-response","12","2.1.0","164915","F=YES, J=NO","w44kz439vj","1","75","85","65","","","","","","lextale","true","false","","","","","","","",""
"1265","
  <p style=""font-size: 40px;"">plove</p>
  <p style=""font-size: 16px;"">F = YES &nbsp;&nbsp;&nbsp; J = NO</p>
","j","html-keyboard-response","13","2.1.0","166181","F=YES, J=NO","w44kz439vj","1","75","85","65","","","","","","lextale","false","false","","","","","","","",""
"1060","
  <p style=""font-size: 40px;"">border</p>
  <p style=""font-size: 16px;"">F = YES &nbsp;&nbsp;&nbsp; J = NO</p>
","f","html-keyboard-response","14","2.1.0","167241","F=YES, J=NO","w44kz439vj","1","75","85","65","","","","","","lextale","true","false","","","","","","","",""
"997","
  <p style=""font-size: 40px;"">flimsy</p>
  <p style=""font-size: 16px;"">F = YES &nbsp;&nbsp;&nbsp; J = NO</p>
","f","html-keyboard-response","15","2.1.0","168239","F=YES, J=NO","w44kz439vj","1","75","85","65","","","","","","lextale","true","false","","","","","","","",""
"680","
  <p style=""font-size: 40px;"">drain</p>
  <p style=""font-size: 16px;"">F = YES &nbsp;&nbsp;&nbsp; J = NO</p>
","f","html-keyboard-response","16","2.1.0","168920","F=YES, J=NO","w44kz439vj","1","75","85","65","","","","","","lextale","true","false","","","","","","","",""
"4029","
  <p style=""font-size: 40px;"">twindle</p>
  <p style=""font-size: 16px;"">F = YES &nbsp;&nbsp;&nbsp; J = NO</p>
","j","html-keyboard-response","17","2.1.0","172949","F=YES, J=NO","w44kz439vj","1","75","85","65","","","","","","lextale","false","false","","","","","","","",""
"1097","
  <p style=""font-size: 40px;"">propose</p>
  <p style=""font-size: 16px;"">F = YES &nbsp;&nbsp;&nbsp; J = NO</p>
","f","html-keyboard-response","18","2.1.0","174046","F=YES, J=NO","w44kz439vj","1","75","85","65","","","","","","lextale","true","false","","","","","","","",""
"1959","
  <p style=""font-size: 40px;"">forlay</p>
  <p style=""font-size: 16px;"">F = YES &nbsp;&nbsp;&nbsp; J = NO</p>
","f","html-keyboard-response","19","2.1.0","176006","F=YES, J=NO","w44kz439vj","1","75","85","65","","","","","","lextale","false","false","","","","","","","",""
"1051","
  <p style=""font-size: 40px;"">tenant</p>
  <p style=""font-size: 16px;"">F = YES &nbsp;&nbsp;&nbsp; J = NO</p>
","f","html-keyboard-response","20","2.1.0","177057","F=YES, J=NO","w44kz439vj","1","75","85","65","","","","","","lextale","true","false","","","","","","","",""
"629","
  <p style=""font-size: 40px;"">strain</p>
  <p style=""font-size: 16px;"">F = YES &nbsp;&nbsp;&nbsp; J = NO</p>
","f","html-keyboard-response","21","2.1.0","177687","F=YES, J=NO","w44kz439vj","1","75","85","65","","","","","","lextale","true","false","","","","","","","",""
"998","
  <p style=""font-size: 40px;"">holster</p>
  <p style=""font-size: 16px;"">F = YES &nbsp;&nbsp;&nbsp; J = NO</p>
","f","html-keyboard-response","22","2.1.0","178685","F=YES, J=NO","w44kz439vj","1","75","85","65","","","","","","lextale","true","false","","","","","","","",""
"1508","
  <p style=""font-size: 40px;"">hinder</p>
  <p style=""font-size: 16px;"">F = YES &nbsp;&nbsp;&nbsp; J = NO</p>
","f","html-keyboard-response","23","2.1.0","180194","F=YES, J=NO","w44kz439vj","1","75","85","65","","","","","","lextale","true","false","","","","","","","",""
"859","
  <p style=""font-size: 40px;"">swindle</p>
  <p style=""font-size: 16px;"">F = YES &nbsp;&nbsp;&nbsp; J = NO</p>
","f","html-keyboard-response","24","2.1.0","181053","F=YES, J=NO","w44kz439vj","1","75","85","65","","","","","","lextale","true","false","","","","","","","",""
"1375","
  <p style=""font-size: 40px;"">nuder</p>
  <p style=""font-size: 16px;"">F = YES &nbsp;&nbsp;&nbsp; J = NO</p>
","j","html-keyboard-response","25","2.1.0","182429","F=YES, J=NO","w44kz439vj","1","75","85","65","","","","","","lextale","false","false","","","","","","","",""
"635","
  <p style=""font-size: 40px;"">pillow</p>
  <p style=""font-size: 16px;"">F = YES &nbsp;&nbsp;&nbsp; J = NO</p>
","f","html-keyboard-response","26","2.1.0","183065","F=YES, J=NO","w44kz439vj","1","75","85","65","","","","","","lextale","true","false","","","","","","","",""
"1957","
  <p style=""font-size: 40px;"">shumble</p>
  <p style=""font-size: 16px;"">F = YES &nbsp;&nbsp;&nbsp; J = NO</p>
","j","html-keyboard-response","27","2.1.0","185023","F=YES, J=NO","w44kz439vj","1","75","85","65","","","","","","lextale","false","false","","","","","","","",""
"648","
  <p style=""font-size: 40px;"">thirst</p>
  <p style=""font-size: 16px;"">F = YES &nbsp;&nbsp;&nbsp; J = NO</p>
","f","html-keyboard-response","28","2.1.0","185671","F=YES, J=NO","w44kz439vj","1","75","85","65","","","","","","lextale","true","false","","","","","","","",""
"2987","
  <p style=""font-size: 40px;"">unsail</p>
  <p style=""font-size: 16px;"">F = YES &nbsp;&nbsp;&nbsp; J = NO</p>
","f","html-keyboard-response","29","2.1.0","188659","F=YES, J=NO","w44kz439vj","1","75","85","65","","","","","","lextale","false","false","","","","","","","",""
"708","
  <p style=""font-size: 40px;"">rifle</p>
  <p style=""font-size: 16px;"">F = YES &nbsp;&nbsp;&nbsp; J = NO</p>
","f","html-keyboard-response","30","2.1.0","189367","F=YES, J=NO","w44kz439vj","1","75","85","65","","","","","","lextale","true","false","","","","","","","",""
"868","
  <p style=""font-size: 40px;"">mush</p>
  <p style=""font-size: 16px;"">F = YES &nbsp;&nbsp;&nbsp; J = NO</p>
","f","html-keyboard-response","31","2.1.0","190236","F=YES, J=NO","w44kz439vj","1","75","85","65","","","","","","lextale","false","false","","","","","","","",""
"776","
  <p style=""font-size: 40px;"">drench</p>
  <p style=""font-size: 16px;"">F = YES &nbsp;&nbsp;&nbsp; J = NO</p>
","f","html-keyboard-response","32","2.1.0","191012","F=YES, J=NO","w44kz439vj","1","75","85","65","","","","","","lextale","true","false","","","","","","","",""
"997","
  <p style=""font-size: 40px;"">snirt</p>
  <p style=""font-size: 16px;"">F = YES &nbsp;&nbsp;&nbsp; J = NO</p>
","j","html-keyboard-response","33","2.1.0","192010","F=YES, J=NO","w44kz439vj","1","75","85","65","","","","","","lextale","false","false","","","","","","","",""
"702","
  <p style=""font-size: 40px;"">bitter</p>
  <p style=""font-size: 16px;"">F = YES &nbsp;&nbsp;&nbsp; J = NO</p>
","f","html-keyboard-response","34","2.1.0","192712","F=YES, J=NO","w44kz439vj","1","75","85","65","","","","","","lextale","true","false","","","","","","","",""
"1031","
  <p style=""font-size: 40px;"">pliff</p>
  <p style=""font-size: 16px;"">F = YES &nbsp;&nbsp;&nbsp; J = NO</p>
","j","html-keyboard-response","35","2.1.0","193744","F=YES, J=NO","w44kz439vj","1","75","85","65","","","","","","lextale","false","false","","","","","","","",""
"713","
  <p style=""font-size: 40px;"">tablet</p>
  <p style=""font-size: 16px;"">F = YES &nbsp;&nbsp;&nbsp; J = NO</p>
","f","html-keyboard-response","36","2.1.0","194457","F=YES, J=NO","w44kz439vj","1","75","85","65","","","","","","lextale","true","false","","","","","","","",""
"622","
  <p style=""font-size: 40px;"">glimmer</p>
  <p style=""font-size: 16px;"">F = YES &nbsp;&nbsp;&nbsp; J = NO</p>
","f","html-keyboard-response","37","2.1.0","195080","F=YES, J=NO","w44kz439vj","1","75","85","65","","","","","","lextale","true","false","","","","","","","",""
"2532","
  <p style=""font-size: 40px;"">slink</p>
  <p style=""font-size: 16px;"">F = YES &nbsp;&nbsp;&nbsp; J = NO</p>
","f","html-keyboard-response","38","2.1.0","197612","F=YES, J=NO","w44kz439vj","1","75","85","65","","","","","","lextale","true","false","","","","","","","",""
"548","
  <p style=""font-size: 40px;"">clever</p>
  <p style=""font-size: 16px;"">F = YES &nbsp;&nbsp;&nbsp; J = NO</p>
","f","html-keyboard-response","39","2.1.0","198161","F=YES, J=NO","w44kz439vj","1","75","85","65","","","","","","lextale","true","false","","","","","","","",""
"1943","
  <p style=""font-size: 40px;"">grum</p>
  <p style=""font-size: 16px;"">F = YES &nbsp;&nbsp;&nbsp; J = NO</p>
","j","html-keyboard-response","40","2.1.0","200105","F=YES, J=NO","w44kz439vj","1","75","85","65","","","","","","lextale","false","false","","","","","","","",""
"689","
  <p style=""font-size: 40px;"">string</p>
  <p style=""font-size: 16px;"">F = YES &nbsp;&nbsp;&nbsp; J = NO</p>
","f","html-keyboard-response","41","2.1.0","200795","F=YES, J=NO","w44kz439vj","1","75","85","65","","","","","","lextale","true","false","","","","","","","",""
"1005","
  <p style=""font-size: 40px;"">plim</p>
  <p style=""font-size: 16px;"">F = YES &nbsp;&nbsp;&nbsp; J = NO</p>
","j","html-keyboard-response","42","2.1.0","201800","F=YES, J=NO","w44kz439vj","1","75","85","65","","","","","","lextale","false","false","","","","","","","",""
"653","
  <p style=""font-size: 40px;"">cable</p>
  <p style=""font-size: 16px;"">F = YES &nbsp;&nbsp;&nbsp; J = NO</p>
","f","html-keyboard-response","43","2.1.0","202454","F=YES, J=NO","w44kz439vj","1","75","85","65","","","","","","lextale","true","false","","","","","","","",""
"2746","
  <p style=""font-size: 40px;"">shrivel</p>
  <p style=""font-size: 16px;"">F = YES &nbsp;&nbsp;&nbsp; J = NO</p>
","f","html-keyboard-response","44","2.1.0","205201","F=YES, J=NO","w44kz439vj","1","75","85","65","","","","","","lextale","true","false","","","","","","","",""
"804","
  <p style=""font-size: 40px;"">tarnish</p>
  <p style=""font-size: 16px;"">F = YES &nbsp;&nbsp;&nbsp; J = NO</p>
","f","html-keyboard-response","45","2.1.0","206006","F=YES, J=NO","w44kz439vj","1","75","85","65","","","","","","lextale","true","false","","","","","","","",""
"1455","
  <p style=""font-size: 40px;"">blim</p>
  <p style=""font-size: 16px;"">F = YES &nbsp;&nbsp;&nbsp; J = NO</p>
","f","html-keyboard-response","46","2.1.0","207462","F=YES, J=NO","w44kz439vj","1","75","85","65","","","","","","lextale","false","false","","","","","","","",""
"880","
  <p style=""font-size: 40px;"">stifle</p>
  <p style=""font-size: 16px;"">F = YES &nbsp;&nbsp;&nbsp; J = NO</p>
","f","html-keyboard-response","47","2.1.0","208342","F=YES, J=NO","w44kz439vj","1","75","85","65","","","","","","lextale","true","false","","","","","","","",""
"2182","
  <p style=""font-size: 40px;"">bint</p>
  <p style=""font-size: 16px;"">F = YES &nbsp;&nbsp;&nbsp; J = NO</p>
","j","html-keyboard-response","48","2.1.0","210525","F=YES, J=NO","w44kz439vj","1","75","85","65","","","","","","lextale","false","false","","","","","","","",""
"599","
  <p style=""font-size: 40px;"">purple</p>
  <p style=""font-size: 16px;"">F = YES &nbsp;&nbsp;&nbsp; J = NO</p>
","f","html-keyboard-response","49","2.1.0","211125","F=YES, J=NO","w44kz439vj","1","75","85","65","","","","","","lextale","true","false","","","","","","","",""
"667","
  <p style=""font-size: 40px;"">wriggle</p>
  <p style=""font-size: 16px;"">F = YES &nbsp;&nbsp;&nbsp; J = NO</p>
","f","html-keyboard-response","50","2.1.0","211793","F=YES, J=NO","w44kz439vj","1","75","85","65","","","","","","lextale","true","false","","","","","","","",""
"702","
  <p style=""font-size: 40px;"">mangle</p>
  <p style=""font-size: 16px;"">F = YES &nbsp;&nbsp;&nbsp; J = NO</p>
","f","html-keyboard-response","51","2.1.0","212495","F=YES, J=NO","w44kz439vj","1","75","85","65","","","","","","lextale","true","false","","","","","","","",""
"744","
  <p style=""font-size: 40px;"">shramp</p>
  <p style=""font-size: 16px;"">F = YES &nbsp;&nbsp;&nbsp; J = NO</p>
","f","html-keyboard-response","52","2.1.0","213240","F=YES, J=NO","w44kz439vj","1","75","85","65","","","","","","lextale","false","false","","","","","","","",""
"882","
  <p style=""font-size: 40px;"">flirt</p>
  <p style=""font-size: 16px;"">F = YES &nbsp;&nbsp;&nbsp; J = NO</p>
","f","html-keyboard-response","53","2.1.0","214123","F=YES, J=NO","w44kz439vj","1","75","85","65","","","","","","lextale","true","false","","","","","","","",""
"829","
  <p style=""font-size: 40px;"">frip</p>
  <p style=""font-size: 16px;"">F = YES &nbsp;&nbsp;&nbsp; J = NO</p>
","j","html-keyboard-response","54","2.1.0","214953","F=YES, J=NO","w44kz439vj","1","75","85","65","","","","","","lextale","false","false","","","","","","","",""
"2765","
  <p style=""font-size: 40px;"">tangle</p>
  <p style=""font-size: 16px;"">F = YES &nbsp;&nbsp;&nbsp; J = NO</p>
","f","html-keyboard-response","55","2.1.0","217718","F=YES, J=NO","w44kz439vj","1","75","85","65","","","","","","lextale","true","false","","","","","","","",""
"830","
  <p style=""font-size: 40px;"">crumble</p>
  <p style=""font-size: 16px;"">F = YES &nbsp;&nbsp;&nbsp; J = NO</p>
","f","html-keyboard-response","56","2.1.0","218549","F=YES, J=NO","w44kz439vj","1","75","85","65","","","","","","lextale","true","false","","","","","","","",""
"1389","
  <p style=""font-size: 40px;"">wrinkle</p>
  <p style=""font-size: 16px;"">F = YES &nbsp;&nbsp;&nbsp; J = NO</p>
","f","html-keyboard-response","57","2.1.0","219939","F=YES, J=NO","w44kz439vj","1","75","85","65","","","","","","lextale","true","false","","","","","","","",""
"1062","
  <p style=""font-size: 40px;"">slumb</p>
  <p style=""font-size: 16px;"">F = YES &nbsp;&nbsp;&nbsp; J = NO</p>
","j","html-keyboard-response","58","2.1.0","221002","F=YES, J=NO","w44kz439vj","1","75","85","65","","","","","","lextale","false","false","","","","","","","",""
"642","
  <p style=""font-size: 40px;"">jungle</p>
  <p style=""font-size: 16px;"">F = YES &nbsp;&nbsp;&nbsp; J = NO</p>
","f","html-keyboard-response","59","2.1.0","221645","F=YES, J=NO","w44kz439vj","1","75","85","65","","","","","","lextale","true","false","","","","","","","",""
"982","
  <p style=""font-size: 40px;"">frolick</p>
  <p style=""font-size: 16px;"">F = YES &nbsp;&nbsp;&nbsp; J = NO</p>
","f","html-keyboard-response","60","2.1.0","222628","F=YES, J=NO","w44kz439vj","1","75","85","65","","","","","","lextale","false","false","","","","","","","",""
"4616","
      <h2>LexTALE Test Completed</h2>
      <p>Your LexTALE vocabulary score is: <strong>75%</strong></p>
      <p>Press any key to continue.</p>
    "," ","html-keyboard-response","61","2.1.0","227245","F=YES, J=NO","w44kz439vj","1","75","85","65","","","","","","","","","","","","","","","",""
"18391","
    <div style=""max-width: 800px; margin: auto; text-align: left;"">
      <h2>Break Time</h2>
      <p>You have completed the first part of the study.</p>
      <p>You may take a short <strong>30-second break</strong> before continuing.</p>
      <p>When you’re ready, press any key to continue to the final task.</p>
    </div>
  "," ","html-keyboard-response","62","2.1.0","245637","F=YES, J=NO","w44kz439vj","1","75","85","65","","","","","","","","","","","","","","","",""
"55567","
    <div style=""max-width: 800px; margin: auto; text-align: left;"">
      <h2>Part 2: Lexical Decision Task</h2>
      <p>You will now begin the second part of the study.</p>
      <p>Each trial will follow this sequence:</p>
      <ul>
        <li>A fixation cross (+) appears at the center of the screen.</li>
        <li>You will hear a short beep followed by a spoken word.</li>
        <li>A written word will appear briefly on the screen.</li>
      </ul>
      <p>Your task is to judge whether the <strong>written word</strong> is a real English word.</p>
      <p style=""margin-top: 1em;""><strong>Key responses:</strong></p>
      <ul>
        <li><strong>F</strong> = YES (real English word)</li>
        <li><strong>J</strong> = NO (not a real English word)</li>
      </ul>
      <p>Please respond as quickly and accurately as you can.</p>
      <p style=""margin-top: 2em;"">Press any key to continue.</p>
    </div>
  "," ","html-keyboard-response","63","2.1.0","301205","F=YES, J=NO","w44kz439vj","1","75","85","65","","","","","","","","","","","","","","","",""
"5160","
    <div style=""max-width: 800px; margin: auto; text-align: left;"">
      <h2>Before You Begin</h2>
      <p>Make sure your sound is turned on.</p>
      <p>You will hear audio during each trial, but your decision should be based only on the <strong>written word</strong> you see on the screen.</p>
      <p><strong>Reminder:</strong></p>
      <ul>
        <li><strong>F</strong> = YES (real English word)</li>
        <li><strong>J</strong> = NO (not a real English word)</li>
      </ul>
      <p style=""margin-top: 2em;"">Press any key when you are ready to begin.</p>
    </div>
  "," ","html-keyboard-response","64","2.1.0","306366","F=YES, J=NO","w44kz439vj","1","75","85","65","","","","","","","","","","","","","","","",""
"4323","
    <div style=""max-width: 800px; margin: auto; text-align: left;"">
      <h2>Part 2: Practice Trials</h2>
      <p>You will now complete a few <strong>practice trials</strong> to get familiar with the task.</p>
      <p>These trials are <strong>not scored</strong> and are only to help you get used to the format.</p>
      <p style=""margin-top: 2em;"">Press any key to begin.</p>
    </div>
  "," ","html-keyboard-response","65","2.1.0","310690","F=YES, J=NO","w44kz439vj","1","75","85","65","","","","","","","","","","","","","","","",""
"5202","<p>Starting practice block 1 of 2. Press any key to continue.</p>"," ","html-keyboard-response","66","2.1.0","315893","F=YES, J=NO","w44kz439vj","1","75","85","65","","","","","","","","","","","","","","","",""
"null","<p style=""font-size: 50px;"">+</p>","null","html-keyboard-response","67","2.1.0","316206","F=YES, J=NO","w44kz439vj","1","75","85","65","","","","","","","","","","","","","","","",""
"null","audio/beep-329314.mp3","null","audio-keyboard-response","68","2.1.0","317861","F=YES, J=NO","w44kz439vj","1","75","85","65","","","","","","","","","","","","","","","",""
"null","audio/butter1.wav","null","audio-keyboard-response","69","2.1.0","318361","F=YES, J=NO","w44kz439vj","1","75","85","65","","","","","","","","","","","","","","","",""
"null","
          <p id=""word"" style=""font-size: 40px;"">chew</p>
          <p style=""font-size: 16px;"">F = YES &nbsp;&nbsp;&nbsp; J = NO</p>
        ","null","html-keyboard-response","70","2.1.0","319873","F=YES, J=NO","w44kz439vj","1","75","85","65","","","","","","","","","chew","butter1","filler","filler","f","false","",""
"null","<p style=""font-size: 50px;"">+</p>","null","html-keyboard-response","71","2.1.0","320180","F=YES, J=NO","w44kz439vj","1","75","85","65","","","","","","","","","","","","","","","",""
"null","audio/beep-329314.mp3","null","audio-keyboard-response","72","2.1.0","321701","F=YES, J=NO","w44kz439vj","1","75","85","65","","","","","","","","","","","","","","","",""
"null","audio/theory1.wav","null","audio-keyboard-response","73","2.1.0","322415","F=YES, J=NO","w44kz439vj","1","75","85","65","","","","","","","","","","","","","","","",""
"1152","
          <p id=""word"" style=""font-size: 40px;"">scolve</p>
          <p style=""font-size: 16px;"">F = YES &nbsp;&nbsp;&nbsp; J = NO</p>
        ","j","html-keyboard-response","74","2.1.0","323567","F=YES, J=NO","w44kz439vj","1","75","85","65","","","","","","","","","scolve","theory1","pseudoword","pseudoword","j","true","",""
"null","<p style=""font-size: 50px;"">+</p>","null","html-keyboard-response","75","2.1.0","323874","F=YES, J=NO","w44kz439vj","1","75","85","65","","","","","","","","","","","","","","","",""
"null","audio/beep-329314.mp3","null","audio-keyboard-response","76","2.1.0","325412","F=YES, J=NO","w44kz439vj","1","75","85","65","","","","","","","","","","","","","","","",""
"null","audio/holiday1.wav","null","audio-keyboard-response","77","2.1.0","326105","F=YES, J=NO","w44kz439vj","1","75","85","65","","","","","","","","","","","","","","","",""
"1167","
          <p id=""word"" style=""font-size: 40px;"">drivets</p>
          <p style=""font-size: 16px;"">F = YES &nbsp;&nbsp;&nbsp; J = NO</p>
        ","f","html-keyboard-response","78","2.1.0","327273","F=YES, J=NO","w44kz439vj","1","75","85","65","","","","","","","","","drivets","holiday1","pseudoword","pseudoword","j","false","",""
"null","<p style=""font-size: 50px;"">+</p>","null","html-keyboard-response","79","2.1.0","327574","F=YES, J=NO","w44kz439vj","1","75","85","65","","","","","","","","","","","","","","","",""
"null","audio/beep-329314.mp3","null","audio-keyboard-response","80","2.1.0","329103","F=YES, J=NO","w44kz439vj","1","75","85","65","","","","","","","","","","","","","","","",""
"null","audio/floor.wav","null","audio-keyboard-response","81","2.1.0","329732","F=YES, J=NO","w44kz439vj","1","75","85","65","","","","","","","","","","","","","","","",""
"null","
          <p id=""word"" style=""font-size: 40px;"">mop</p>
          <p style=""font-size: 16px;"">F = YES &nbsp;&nbsp;&nbsp; J = NO</p>
        ","null","html-keyboard-response","82","2.1.0","331243","F=YES, J=NO","w44kz439vj","1","75","85","65","","","","","","","","","mop","floor","filler","filler","f","false","",""
"null","<p style=""font-size: 50px;"">+</p>","null","html-keyboard-response","83","2.1.0","331554","F=YES, J=NO","w44kz439vj","1","75","85","65","","","","","","","","","","","","","","","",""
"null","audio/beep-329314.mp3","null","audio-keyboard-response","84","2.1.0","333092","F=YES, J=NO","w44kz439vj","1","75","85","65","","","","","","","","","","","","","","","",""
"null","audio/terrain.wav","null","audio-keyboard-response","85","2.1.0","333721","F=YES, J=NO","w44kz439vj","1","75","85","65","","","","","","","","","","","","","","","",""
"746","
          <p id=""word"" style=""font-size: 40px;"">twist</p>
          <p style=""font-size: 16px;"">F = YES &nbsp;&nbsp;&nbsp; J = NO</p>
        ","f","html-keyboard-response","86","2.1.0","334468","F=YES, J=NO","w44kz439vj","1","75","85","65","","","","","","","","","twist","terrain","filler","filler","f","true","",""
"null","<p style=""font-size: 50px;"">+</p>","null","html-keyboard-response","87","2.1.0","334779","F=YES, J=NO","w44kz439vj","1","75","85","65","","","","","","","","","","","","","","","",""
"null","audio/beep-329314.mp3","null","audio-keyboard-response","88","2.1.0","336314","F=YES, J=NO","w44kz439vj","1","75","85","65","","","","","","","","","","","","","","","",""
"null","audio/belief.wav","null","audio-keyboard-response","89","2.1.0","337114","F=YES, J=NO","w44kz439vj","1","75","85","65","","","","","","","","","","","","","","","",""
"668","
          <p id=""word"" style=""font-size: 40px;"">read</p>
          <p style=""font-size: 16px;"">F = YES &nbsp;&nbsp;&nbsp; J = NO</p>
        ","f","html-keyboard-response","90","2.1.0","337783","F=YES, J=NO","w44kz439vj","1","75","85","65","","","","","","","","","read","belief","filler","filler","f","true","",""
"null","<p style=""font-size: 50px;"">+</p>","null","html-keyboard-response","91","2.1.0","338104","F=YES, J=NO","w44kz439vj","1","75","85","65","","","","","","","","","","","","","","","",""
"null","audio/beep-329314.mp3","null","audio-keyboard-response","92","2.1.0","339641","F=YES, J=NO","w44kz439vj","1","75","85","65","","","","","","","","","","","","","","","",""
"null","audio/birth1.wav","null","audio-keyboard-response","93","2.1.0","340185","F=YES, J=NO","w44kz439vj","1","75","85","65","","","","","","","","","","","","","","","",""
"597","
          <p id=""word"" style=""font-size: 40px;"">peel</p>
          <p style=""font-size: 16px;"">F = YES &nbsp;&nbsp;&nbsp; J = NO</p>
        ","f","html-keyboard-response","94","2.1.0","340783","F=YES, J=NO","w44kz439vj","1","75","85","65","","","","","","","","","peel","birth1","filler","filler","f","true","",""
"null","<p style=""font-size: 50px;"">+</p>","null","html-keyboard-response","95","2.1.0","341095","F=YES, J=NO","w44kz439vj","1","75","85","65","","","","","","","","","","","","","","","",""
"null","audio/beep-329314.mp3","null","audio-keyboard-response","96","2.1.0","342628","F=YES, J=NO","w44kz439vj","1","75","85","65","","","","","","","","","","","","","","","",""
"null","audio/alarm1.wav","null","audio-keyboard-response","97","2.1.0","343214","F=YES, J=NO","w44kz439vj","1","75","85","65","","","","","","","","","","","","","","","",""
"null","
          <p id=""word"" style=""font-size: 40px;"">swetp</p>
          <p style=""font-size: 16px;"">F = YES &nbsp;&nbsp;&nbsp; J = NO</p>
        ","null","html-keyboard-response","98","2.1.0","344717","F=YES, J=NO","w44kz439vj","1","75","85","65","","","","","","","","","swetp","alarm1","pseudoword","pseudoword","j","false","",""
"null","<p style=""font-size: 50px;"">+</p>","null","html-keyboard-response","99","2.1.0","345025","F=YES, J=NO","w44kz439vj","1","75","85","65","","","","","","","","","","","","","","","",""
"null","audio/beep-329314.mp3","null","audio-keyboard-response","100","2.1.0","346553","F=YES, J=NO","w44kz439vj","1","75","85","65","","","","","","","","","","","","","","","",""
"null","audio/pine.wav","null","audio-keyboard-response","101","2.1.0","347097","F=YES, J=NO","w44kz439vj","1","75","85","65","","","","","","","","","","","","","","","",""
"1452","
          <p id=""word"" style=""font-size: 40px;"">crebble</p>
          <p style=""font-size: 16px;"">F = YES &nbsp;&nbsp;&nbsp; J = NO</p>
        ","j","html-keyboard-response","102","2.1.0","348550","F=YES, J=NO","w44kz439vj","1","75","85","65","","","","","","","","","crebble","pine","pseudoword","pseudoword","j","true","",""
"null","<p style=""font-size: 50px;"">+</p>","null","html-keyboard-response","103","2.1.0","348862","F=YES, J=NO","w44kz439vj","1","75","85","65","","","","","","","","","","","","","","","",""
"null","audio/beep-329314.mp3","null","audio-keyboard-response","104","2.1.0","350393","F=YES, J=NO","w44kz439vj","1","75","85","65","","","","","","","","","","","","","","","",""
"null","audio/age1.wav","null","audio-keyboard-response","105","2.1.0","350959","F=YES, J=NO","w44kz439vj","1","75","85","65","","","","","","","","","","","","","","","",""
"725","
          <p id=""word"" style=""font-size: 40px;"">bake</p>
          <p style=""font-size: 16px;"">F = YES &nbsp;&nbsp;&nbsp; J = NO</p>
        ","f","html-keyboard-response","106","2.1.0","351684","F=YES, J=NO","w44kz439vj","1","75","85","65","","","","","","","","","bake","age1","filler","filler","f","true","",""
"null","<p style=""font-size: 50px;"">+</p>","null","html-keyboard-response","107","2.1.0","351994","F=YES, J=NO","w44kz439vj","1","75","85","65","","","","","","","","","","","","","","","",""
"null","audio/beep-329314.mp3","null","audio-keyboard-response","108","2.1.0","353529","F=YES, J=NO","w44kz439vj","1","75","85","65","","","","","","","","","","","","","","","",""
"null","audio/bomb1.wav","null","audio-keyboard-response","109","2.1.0","353966","F=YES, J=NO","w44kz439vj","1","75","85","65","","","","","","","","","","","","","","","",""
"725","
          <p id=""word"" style=""font-size: 40px;"">clean</p>
          <p style=""font-size: 16px;"">F = YES &nbsp;&nbsp;&nbsp; J = NO</p>
        ","f","html-keyboard-response","110","2.1.0","354692","F=YES, J=NO","w44kz439vj","1","75","85","65","","","","","","","","","clean","bomb1","filler","filler","f","true","",""
"null","<p style=""font-size: 50px;"">+</p>","null","html-keyboard-response","111","2.1.0","355000","F=YES, J=NO","w44kz439vj","1","75","85","65","","","","","","","","","","","","","","","",""
"null","audio/beep-329314.mp3","null","audio-keyboard-response","112","2.1.0","356537","F=YES, J=NO","w44kz439vj","1","75","85","65","","","","","","","","","","","","","","","",""
"null","audio/baby.wav","null","audio-keyboard-response","113","2.1.0","357017","F=YES, J=NO","w44kz439vj","1","75","85","65","","","","","","","","","","","","","","","",""
"617","
          <p id=""word"" style=""font-size: 40px;"">lift</p>
          <p style=""font-size: 16px;"">F = YES &nbsp;&nbsp;&nbsp; J = NO</p>
        ","f","html-keyboard-response","114","2.1.0","357634","F=YES, J=NO","w44kz439vj","1","75","85","65","","","","","","","","","lift","baby","filler","filler","f","true","",""
"3754","<p>Starting practice block 2 of 2. Press any key to continue.</p>"," ","html-keyboard-response","115","2.1.0","361390","F=YES, J=NO","w44kz439vj","1","75","85","65","","","","","","","","","","","","","","","",""
"null","<p style=""font-size: 50px;"">+</p>","null","html-keyboard-response","116","2.1.0","361709","F=YES, J=NO","w44kz439vj","1","75","85","65","","","","","","","","","","","","","","","",""
"null","audio/beep-329314.mp3","null","audio-keyboard-response","117","2.1.0","363236","F=YES, J=NO","w44kz439vj","1","75","85","65","","","","","","","","","","","","","","","",""
"null","audio/breath.wav","null","audio-keyboard-response","118","2.1.0","363801","F=YES, J=NO","w44kz439vj","1","75","85","65","","","","","","","","","","","","","","","",""
"678","
          <p id=""word"" style=""font-size: 40px;"">pack</p>
          <p style=""font-size: 16px;"">F = YES &nbsp;&nbsp;&nbsp; J = NO</p>
        ","f","html-keyboard-response","119","2.1.0","364479","F=YES, J=NO","w44kz439vj","1","75","85","65","","","","","","","","","pack","breath","filler","filler","f","true","",""
"null","<p style=""font-size: 50px;"">+</p>","null","html-keyboard-response","120","2.1.0","364782","F=YES, J=NO","w44kz439vj","1","75","85","65","","","","","","","","","","","","","","","",""
"null","audio/beep-329314.mp3","null","audio-keyboard-response","121","2.1.0","366308","F=YES, J=NO","w44kz439vj","1","75","85","65","","","","","","","","","","","","","","","",""
"null","audio/gift1.wav","null","audio-keyboard-response","122","2.1.0","366830","F=YES, J=NO","w44kz439vj","1","75","85","65","","","","","","","","","","","","","","","",""
"954","
          <p id=""word"" style=""font-size: 40px;"">protsh</p>
          <p style=""font-size: 16px;"">F = YES &nbsp;&nbsp;&nbsp; J = NO</p>
        ","j","html-keyboard-response","123","2.1.0","367785","F=YES, J=NO","w44kz439vj","1","75","85","65","","","","","","","","","protsh","gift1","pseudoword","pseudoword","j","true","",""
"null","<p style=""font-size: 50px;"">+</p>","null","html-keyboard-response","124","2.1.0","368100","F=YES, J=NO","w44kz439vj","1","75","85","65","","","","","","","","","","","","","","","",""
"null","audio/beep-329314.mp3","null","audio-keyboard-response","125","2.1.0","369636","F=YES, J=NO","w44kz439vj","1","75","85","65","","","","","","","","","","","","","","","",""
"null","audio/winter.wav","null","audio-keyboard-response","126","2.1.0","370286","F=YES, J=NO","w44kz439vj","1","75","85","65","","","","","","","","","","","","","","","",""
"929","
          <p id=""word"" style=""font-size: 40px;"">straven</p>
          <p style=""font-size: 16px;"">F = YES &nbsp;&nbsp;&nbsp; J = NO</p>
        ","j","html-keyboard-response","127","2.1.0","371216","F=YES, J=NO","w44kz439vj","1","75","85","65","","","","","","","","","straven","winter","pseudoword","pseudoword","j","true","",""
"null","<p style=""font-size: 50px;"">+</p>","null","html-keyboard-response","128","2.1.0","371519","F=YES, J=NO","w44kz439vj","1","75","85","65","","","","","","","","","","","","","","","",""
"null","audio/beep-329314.mp3","null","audio-keyboard-response","129","2.1.0","373049","F=YES, J=NO","w44kz439vj","1","75","85","65","","","","","","","","","","","","","","","",""
"null","audio/ego.wav","null","audio-keyboard-response","130","2.1.0","373615","F=YES, J=NO","w44kz439vj","1","75","85","65","","","","","","","","","","","","","","","",""
"1166","
          <p id=""word"" style=""font-size: 40px;"">bruite</p>
          <p style=""font-size: 16px;"">F = YES &nbsp;&nbsp;&nbsp; J = NO</p>
        ","j","html-keyboard-response","131","2.1.0","374782","F=YES, J=NO","w44kz439vj","1","75","85","65","","","","","","","","","bruite","ego","pseudoword","pseudoword","j","true","",""
"null","<p style=""font-size: 50px;"">+</p>","null","html-keyboard-response","132","2.1.0","375096","F=YES, J=NO","w44kz439vj","1","75","85","65","","","","","","","","","","","","","","","",""
"null","audio/beep-329314.mp3","null","audio-keyboard-response","133","2.1.0","376633","F=YES, J=NO","w44kz439vj","1","75","85","65","","","","","","","","","","","","","","","",""
"null","audio/budget1.wav","null","audio-keyboard-response","134","2.1.0","377433","F=YES, J=NO","w44kz439vj","1","75","85","65","","","","","","","","","","","","","","","",""
"null","
          <p id=""word"" style=""font-size: 40px;"">sulist</p>
          <p style=""font-size: 16px;"">F = YES &nbsp;&nbsp;&nbsp; J = NO</p>
        ","null","html-keyboard-response","135","2.1.0","378947","F=YES, J=NO","w44kz439vj","1","75","85","65","","","","","","","","","sulist","budget1","pseudoword","pseudoword","j","false","",""
"null","<p style=""font-size: 50px;"">+</p>","null","html-keyboard-response","136","2.1.0","379256","F=YES, J=NO","w44kz439vj","1","75","85","65","","","","","","","","","","","","","","","",""
"null","audio/beep-329314.mp3","null","audio-keyboard-response","137","2.1.0","380793","F=YES, J=NO","w44kz439vj","1","75","85","65","","","","","","","","","","","","","","","",""
"null","audio/corpse1.wav","null","audio-keyboard-response","138","2.1.0","381444","F=YES, J=NO","w44kz439vj","1","75","85","65","","","","","","","","","","","","","","","",""
"683","
          <p id=""word"" style=""font-size: 40px;"">glonet</p>
          <p style=""font-size: 16px;"">F = YES &nbsp;&nbsp;&nbsp; J = NO</p>
        ","j","html-keyboard-response","139","2.1.0","382127","F=YES, J=NO","w44kz439vj","1","75","85","65","","","","","","","","","glonet","corpse1","pseudoword","pseudoword","j","true","",""
"null","<p style=""font-size: 50px;"">+</p>","null","html-keyboard-response","140","2.1.0","382445","F=YES, J=NO","w44kz439vj","1","75","85","65","","","","","","","","","","","","","","","",""
"null","audio/beep-329314.mp3","null","audio-keyboard-response","141","2.1.0","383972","F=YES, J=NO","w44kz439vj","1","75","85","65","","","","","","","","","","","","","","","",""
"null","audio/account1.wav","null","audio-keyboard-response","142","2.1.0","384686","F=YES, J=NO","w44kz439vj","1","75","85","65","","","","","","","","","","","","","","","",""
"526","
          <p id=""word"" style=""font-size: 40px;"">paint</p>
          <p style=""font-size: 16px;"">F = YES &nbsp;&nbsp;&nbsp; J = NO</p>
        ","f","html-keyboard-response","143","2.1.0","385213","F=YES, J=NO","w44kz439vj","1","75","85","65","","","","","","","","","paint","account1","filler","filler","f","true","",""
"null","<p style=""font-size: 50px;"">+</p>","null","html-keyboard-response","144","2.1.0","385518","F=YES, J=NO","w44kz439vj","1","75","85","65","","","","","","","","","","","","","","","",""
"null","audio/beep-329314.mp3","null","audio-keyboard-response","145","2.1.0","387044","F=YES, J=NO","w44kz439vj","1","75","85","65","","","","","","","","","","","","","","","",""
"null","audio/arm.wav","null","audio-keyboard-response","146","2.1.0","387588","F=YES, J=NO","w44kz439vj","1","75","85","65","","","","","","","","","","","","","","","",""
"649","
          <p id=""word"" style=""font-size: 40px;"">pigne</p>
          <p style=""font-size: 16px;"">F = YES &nbsp;&nbsp;&nbsp; J = NO</p>
        ","j","html-keyboard-response","147","2.1.0","388237","F=YES, J=NO","w44kz439vj","1","75","85","65","","","","","","","","","pigne","arm","pseudoword","pseudoword","j","true","",""
"null","<p style=""font-size: 50px;"">+</p>","null","html-keyboard-response","148","2.1.0","388544","F=YES, J=NO","w44kz439vj","1","75","85","65","","","","","","","","","","","","","","","",""
"null","audio/beep-329314.mp3","null","audio-keyboard-response","149","2.1.0","390074","F=YES, J=NO","w44kz439vj","1","75","85","65","","","","","","","","","","","","","","","",""
"null","audio/cancer1.wav","null","audio-keyboard-response","150","2.1.0","390638","F=YES, J=NO","w44kz439vj","1","75","85","65","","","","","","","","","","","","","","","",""
"506","
          <p id=""word"" style=""font-size: 40px;"">draw</p>
          <p style=""font-size: 16px;"">F = YES &nbsp;&nbsp;&nbsp; J = NO</p>
        ","f","html-keyboard-response","151","2.1.0","391145","F=YES, J=NO","w44kz439vj","1","75","85","65","","","","","","","","","draw","cancer1","filler","filler","f","true","",""
"null","<p style=""font-size: 50px;"">+</p>","null","html-keyboard-response","152","2.1.0","391452","F=YES, J=NO","w44kz439vj","1","75","85","65","","","","","","","","","","","","","","","",""
"null","audio/beep-329314.mp3","null","audio-keyboard-response","153","2.1.0","392975","F=YES, J=NO","w44kz439vj","1","75","85","65","","","","","","","","","","","","","","","",""
"null","audio/haste1.wav","null","audio-keyboard-response","154","2.1.0","393711","F=YES, J=NO","w44kz439vj","1","75","85","65","","","","","","","","","","","","","","","",""
"899","
          <p id=""word"" style=""font-size: 40px;"">coraconate</p>
          <p style=""font-size: 16px;"">F = YES &nbsp;&nbsp;&nbsp; J = NO</p>
        ","f","html-keyboard-response","155","2.1.0","394611","F=YES, J=NO","w44kz439vj","1","75","85","65","","","","","","","","","coraconate","haste1","pseudoword","pseudoword","j","false","",""
"null","<p style=""font-size: 50px;"">+</p>","null","html-keyboard-response","156","2.1.0","394925","F=YES, J=NO","w44kz439vj","1","75","85","65","","","","","","","","","","","","","","","",""
"null","audio/beep-329314.mp3","null","audio-keyboard-response","157","2.1.0","396452","F=YES, J=NO","w44kz439vj","1","75","85","65","","","","","","","","","","","","","","","",""
"null","audio/bottle.wav","null","audio-keyboard-response","158","2.1.0","396996","F=YES, J=NO","w44kz439vj","1","75","85","65","","","","","","","","","","","","","","","",""
"636","
          <p id=""word"" style=""font-size: 40px;"">watch</p>
          <p style=""font-size: 16px;"">F = YES &nbsp;&nbsp;&nbsp; J = NO</p>
        ","f","html-keyboard-response","159","2.1.0","397633","F=YES, J=NO","w44kz439vj","1","75","85","65","","","","","","","","","watch","bottle","filler","filler","f","true","",""
"null","<p style=""font-size: 50px;"">+</p>","null","html-keyboard-response","160","2.1.0","397955","F=YES, J=NO","w44kz439vj","1","75","85","65","","","","","","","","","","","","","","","",""
"null","audio/beep-329314.mp3","null","audio-keyboard-response","161","2.1.0","399482","F=YES, J=NO","w44kz439vj","1","75","85","65","","","","","","","","","","","","","","","",""
"null","audio/cloud1.wav","null","audio-keyboard-response","162","2.1.0","400046","F=YES, J=NO","w44kz439vj","1","75","85","65","","","","","","","","","","","","","","","",""
"777","
          <p id=""word"" style=""font-size: 40px;"">brotant</p>
          <p style=""font-size: 16px;"">F = YES &nbsp;&nbsp;&nbsp; J = NO</p>
        ","j","html-keyboard-response","163","2.1.0","400824","F=YES, J=NO","w44kz439vj","1","75","85","65","","","","","","","","","brotant","cloud1","pseudoword","pseudoword","j","true","",""
"12215","
    <div style=""max-width: 800px; margin: auto; text-align: left;"">
      <h2>Part 2: Main Trials</h2>
      <p>Great job on the practice trials!</p>
      <p>You will now begin the <strong>main set of trials</strong>.</p>
      <p>Remember your key assignments:</p>
      <ul>
        <li><strong>F</strong> = YES (real English word)</li>
        <li><strong>J</strong> = NO (not a real English word)</li>
      </ul>
      <p>Try to respond as <strong>quickly and accurately</strong> as possible.</p>
      <p style=""margin-top: 2em;"">Press any key to begin the main trials.</p>
    </div>
  "," ","html-keyboard-response","164","2.1.0","413040","F=YES, J=NO","w44kz439vj","1","75","85","65","","","","","","","","","","","","","","","",""
"58567","<p>Starting main block 1 of 8. Press any key to continue.</p>"," ","html-keyboard-response","165","2.1.0","471608","F=YES, J=NO","w44kz439vj","1","75","85","65","","","","","","","","","","","","","","","",""
"null","<p style=""font-size: 50px;"">+</p>","null","html-keyboard-response","166","2.1.0","471915","F=YES, J=NO","w44kz439vj","1","75","85","65","","","","","","","","","","","","","","","",""
"null","audio/beep-329314.mp3","null","audio-keyboard-response","167","2.1.0","473536","F=YES, J=NO","w44kz439vj","1","75","85","65","","","","","","","","","","","","","","","",""
"null","audio/camera1.wav","null","audio-keyboard-response","168","2.1.0","474025","F=YES, J=NO","w44kz439vj","1","75","85","65","","","","","","","","","","","","","","","",""
"859","
          <p id=""word"" style=""font-size: 40px;"">stir</p>
          <p style=""font-size: 16px;"">F = YES &nbsp;&nbsp;&nbsp; J = NO</p>
        ","f","html-keyboard-response","169","2.1.0","474886","F=YES, J=NO","w44kz439vj","1","75","85","65","","","","","","","","","stir","camera1","filler","filler","f","true","",""
"null","<p style=""font-size: 50px;"">+</p>","null","html-keyboard-response","170","2.1.0","475197","F=YES, J=NO","w44kz439vj","1","75","85","65","","","","","","","","","","","","","","","",""
"null","audio/beep-329314.mp3","null","audio-keyboard-response","171","2.1.0","476735","F=YES, J=NO","w44kz439vj","1","75","85","65","","","","","","","","","","","","","","","",""
"null","audio/kettle1.wav","null","audio-keyboard-response","172","2.1.0","477226","F=YES, J=NO","w44kz439vj","1","75","85","65","","","","","","","","","","","","","","","",""
"900","
          <p id=""word"" style=""font-size: 40px;"">wrap</p>
          <p style=""font-size: 16px;"">F = YES &nbsp;&nbsp;&nbsp; J = NO</p>
        ","f","html-keyboard-response","173","2.1.0","478127","F=YES, J=NO","w44kz439vj","1","75","85","65","","","","","","","","","wrap","kettle1","filler","filler","f","true","",""
"null","<p style=""font-size: 50px;"">+</p>","null","html-keyboard-response","174","2.1.0","478440","F=YES, J=NO","w44kz439vj","1","75","85","65","","","","","","","","","","","","","","","",""
"null","audio/beep-329314.mp3","null","audio-keyboard-response","175","2.1.0","479978","F=YES, J=NO","w44kz439vj","1","75","85","65","","","","","","","","","","","","","","","",""
"null","audio/pain1.wav","null","audio-keyboard-response","176","2.1.0","480447","F=YES, J=NO","w44kz439vj","1","75","85","65","","","","","","","","","","","","","","","",""
"836","
          <p id=""word"" style=""font-size: 40px;"">tritted</p>
          <p style=""font-size: 16px;"">F = YES &nbsp;&nbsp;&nbsp; J = NO</p>
        ","j","html-keyboard-response","177","2.1.0","481284","F=YES, J=NO","w44kz439vj","1","75","85","65","","","","","","","","","tritted","pain1","pseudoword","pseudoword","j","true","",""
"null","<p style=""font-size: 50px;"">+</p>","null","html-keyboard-response","178","2.1.0","481599","F=YES, J=NO","w44kz439vj","1","75","85","65","","","","","","","","","","","","","","","",""
"null","audio/beep-329314.mp3","null","audio-keyboard-response","179","2.1.0","483135","F=YES, J=NO","w44kz439vj","1","75","85","65","","","","","","","","","","","","","","","",""
"null","audio/cave1.wav","null","audio-keyboard-response","180","2.1.0","483711","F=YES, J=NO","w44kz439vj","1","75","85","65","","","","","","","","","","","","","","","",""
"627","
          <p id=""word"" style=""font-size: 40px;"">blacket</p>
          <p style=""font-size: 16px;"">F = YES &nbsp;&nbsp;&nbsp; J = NO</p>
        ","f","html-keyboard-response","181","2.1.0","484339","F=YES, J=NO","w44kz439vj","1","75","85","65","","","","","","","","","blacket","cave1","pseudoword","pseudoword","j","false","",""
"null","<p style=""font-size: 50px;"">+</p>","null","html-keyboard-response","182","2.1.0","484643","F=YES, J=NO","w44kz439vj","1","75","85","65","","","","","","","","","","","","","","","",""
"null","audio/beep-329314.mp3","null","audio-keyboard-response","183","2.1.0","486164","F=YES, J=NO","w44kz439vj","1","75","85","65","","","","","","","","","","","","","","","",""
"null","audio/ankle1.wav","null","audio-keyboard-response","184","2.1.0","486697","F=YES, J=NO","w44kz439vj","1","75","85","65","","","","","","","","","","","","","","","",""
"564","
          <p id=""word"" style=""font-size: 40px;"">hurt</p>
          <p style=""font-size: 16px;"">F = YES &nbsp;&nbsp;&nbsp; J = NO</p>
        ","f","html-keyboard-response","185","2.1.0","487262","F=YES, J=NO","w44kz439vj","1","75","85","65","","","","","","","","","hurt","ankle1","literal","experimental","f","true","",""
"null","<p style=""font-size: 50px;"">+</p>","null","html-keyboard-response","186","2.1.0","487571","F=YES, J=NO","w44kz439vj","1","75","85","65","","","","","","","","","","","","","","","",""
"null","audio/beep-329314.mp3","null","audio-keyboard-response","187","2.1.0","489108","F=YES, J=NO","w44kz439vj","1","75","85","65","","","","","","","","","","","","","","","",""
"null","audio/voice.wav","null","audio-keyboard-response","188","2.1.0","489876","F=YES, J=NO","w44kz439vj","1","75","85","65","","","","","","","","","","","","","","","",""
"859","
          <p id=""word"" style=""font-size: 40px;"">grintle</p>
          <p style=""font-size: 16px;"">F = YES &nbsp;&nbsp;&nbsp; J = NO</p>
        ","j","html-keyboard-response","189","2.1.0","490736","F=YES, J=NO","w44kz439vj","1","75","85","65","","","","","","","","","grintle","voice","pseudoword","pseudoword","j","true","",""
"null","<p style=""font-size: 50px;"">+</p>","null","html-keyboard-response","190","2.1.0","491050","F=YES, J=NO","w44kz439vj","1","75","85","65","","","","","","","","","","","","","","","",""
"null","audio/beep-329314.mp3","null","audio-keyboard-response","191","2.1.0","492586","F=YES, J=NO","w44kz439vj","1","75","85","65","","","","","","","","","","","","","","","",""
"null","audio/heart1.wav","null","audio-keyboard-response","192","2.1.0","493204","F=YES, J=NO","w44kz439vj","1","75","85","65","","","","","","","","","","","","","","","",""
"1023","
          <p id=""word"" style=""font-size: 40px;"">dralm</p>
          <p style=""font-size: 16px;"">F = YES &nbsp;&nbsp;&nbsp; J = NO</p>
        ","j","html-keyboard-response","193","2.1.0","494228","F=YES, J=NO","w44kz439vj","1","75","85","65","","","","","","","","","dralm","heart1","pseudoword","pseudoword","j","true","",""
"null","<p style=""font-size: 50px;"">+</p>","null","html-keyboard-response","194","2.1.0","494536","F=YES, J=NO","w44kz439vj","1","75","85","65","","","","","","","","","","","","","","","",""
"null","audio/beep-329314.mp3","null","audio-keyboard-response","195","2.1.0","496063","F=YES, J=NO","w44kz439vj","1","75","85","65","","","","","","","","","","","","","","","",""
"null","audio/desire.wav","null","audio-keyboard-response","196","2.1.0","496681","F=YES, J=NO","w44kz439vj","1","75","85","65","","","","","","","","","","","","","","","",""
"877","
          <p id=""word"" style=""font-size: 40px;"">nophed</p>
          <p style=""font-size: 16px;"">F = YES &nbsp;&nbsp;&nbsp; J = NO</p>
        ","j","html-keyboard-response","197","2.1.0","497559","F=YES, J=NO","w44kz439vj","1","75","85","65","","","","","","","","","nophed","desire","pseudoword","pseudoword","j","true","",""
"null","<p style=""font-size: 50px;"">+</p>","null","html-keyboard-response","198","2.1.0","497875","F=YES, J=NO","w44kz439vj","1","75","85","65","","","","","","","","","","","","","","","",""
"null","audio/beep-329314.mp3","null","audio-keyboard-response","199","2.1.0","499412","F=YES, J=NO","w44kz439vj","1","75","85","65","","","","","","","","","","","","","","","",""
"null","audio/battle1.wav","null","audio-keyboard-response","200","2.1.0","500031","F=YES, J=NO","w44kz439vj","1","75","85","65","","","","","","","","","","","","","","","",""
"580","
          <p id=""word"" style=""font-size: 40px;"">boil</p>
          <p style=""font-size: 16px;"">F = YES &nbsp;&nbsp;&nbsp; J = NO</p>
        ","f","html-keyboard-response","201","2.1.0","500612","F=YES, J=NO","w44kz439vj","1","75","85","65","","","","","","","","","boil","battle1","filler","filler","f","true","",""
"null","<p style=""font-size: 50px;"">+</p>","null","html-keyboard-response","202","2.1.0","500925","F=YES, J=NO","w44kz439vj","1","75","85","65","","","","","","","","","","","","","","","",""
"null","audio/beep-329314.mp3","null","audio-keyboard-response","203","2.1.0","502463","F=YES, J=NO","w44kz439vj","1","75","85","65","","","","","","","","","","","","","","","",""
"null","audio/roof1.wav","null","audio-keyboard-response","204","2.1.0","502996","F=YES, J=NO","w44kz439vj","1","75","85","65","","","","","","","","","","","","","","","",""
"705","
          <p id=""word"" style=""font-size: 40px;"">wronb</p>
          <p style=""font-size: 16px;"">F = YES &nbsp;&nbsp;&nbsp; J = NO</p>
        ","j","html-keyboard-response","205","2.1.0","503701","F=YES, J=NO","w44kz439vj","1","75","85","65","","","","","","","","","wronb","roof1","pseudoword","pseudoword","j","true","",""
"null","<p style=""font-size: 50px;"">+</p>","null","html-keyboard-response","206","2.1.0","504019","F=YES, J=NO","w44kz439vj","1","75","85","65","","","","","","","","","","","","","","","",""
"null","audio/beep-329314.mp3","null","audio-keyboard-response","207","2.1.0","505556","F=YES, J=NO","w44kz439vj","1","75","85","65","","","","","","","","","","","","","","","",""
"null","audio/menu.wav","null","audio-keyboard-response","208","2.1.0","506153","F=YES, J=NO","w44kz439vj","1","75","85","65","","","","","","","","","","","","","","","",""
"702","
          <p id=""word"" style=""font-size: 40px;"">slice</p>
          <p style=""font-size: 16px;"">F = YES &nbsp;&nbsp;&nbsp; J = NO</p>
        ","f","html-keyboard-response","209","2.1.0","506856","F=YES, J=NO","w44kz439vj","1","75","85","65","","","","","","","","","slice","menu","filler","filler","f","true","",""
"null","<p style=""font-size: 50px;"">+</p>","null","html-keyboard-response","210","2.1.0","507168","F=YES, J=NO","w44kz439vj","1","75","85","65","","","","","","","","","","","","","","","",""
"null","audio/beep-329314.mp3","null","audio-keyboard-response","211","2.1.0","508692","F=YES, J=NO","w44kz439vj","1","75","85","65","","","","","","","","","","","","","","","",""
"null","audio/relief.wav","null","audio-keyboard-response","212","2.1.0","509353","F=YES, J=NO","w44kz439vj","1","75","85","65","","","","","","","","","","","","","","","",""
"808","
          <p id=""word"" style=""font-size: 40px;"">grigg</p>
          <p style=""font-size: 16px;"">F = YES &nbsp;&nbsp;&nbsp; J = NO</p>
        ","j","html-keyboard-response","213","2.1.0","510162","F=YES, J=NO","w44kz439vj","1","75","85","65","","","","","","","","","grigg","relief","pseudoword","pseudoword","j","true","",""
"null","<p style=""font-size: 50px;"">+</p>","null","html-keyboard-response","214","2.1.0","510463","F=YES, J=NO","w44kz439vj","1","75","85","65","","","","","","","","","","","","","","","",""
"null","audio/beep-329314.mp3","null","audio-keyboard-response","215","2.1.0","511999","F=YES, J=NO","w44kz439vj","1","75","85","65","","","","","","","","","","","","","","","",""
"null","audio/haste1.wav","null","audio-keyboard-response","216","2.1.0","512553","F=YES, J=NO","w44kz439vj","1","75","85","65","","","","","","","","","","","","","","","",""
"493","
          <p id=""word"" style=""font-size: 40px;"">hide</p>
          <p style=""font-size: 16px;"">F = YES &nbsp;&nbsp;&nbsp; J = NO</p>
        ","f","html-keyboard-response","217","2.1.0","513047","F=YES, J=NO","w44kz439vj","1","75","85","65","","","","","","","","","hide","haste1","unrelated","experimental","f","true","",""
"null","<p style=""font-size: 50px;"">+</p>","null","html-keyboard-response","218","2.1.0","513351","F=YES, J=NO","w44kz439vj","1","75","85","65","","","","","","","","","","","","","","","",""
"null","audio/beep-329314.mp3","null","audio-keyboard-response","219","2.1.0","514879","F=YES, J=NO","w44kz439vj","1","75","85","65","","","","","","","","","","","","","","","",""
"null","audio/trust.wav","null","audio-keyboard-response","220","2.1.0","515668","F=YES, J=NO","w44kz439vj","1","75","85","65","","","","","","","","","","","","","","","",""
"619","
          <p id=""word"" style=""font-size: 40px;"">swint</p>
          <p style=""font-size: 16px;"">F = YES &nbsp;&nbsp;&nbsp; J = NO</p>
        ","f","html-keyboard-response","221","2.1.0","516287","F=YES, J=NO","w44kz439vj","1","75","85","65","","","","","","","","","swint","trust","pseudoword","pseudoword","j","false","",""
"null","<p style=""font-size: 50px;"">+</p>","null","html-keyboard-response","222","2.1.0","516591","F=YES, J=NO","w44kz439vj","1","75","85","65","","","","","","","","","","","","","","","",""
"null","audio/beep-329314.mp3","null","audio-keyboard-response","223","2.1.0","518121","F=YES, J=NO","w44kz439vj","1","75","85","65","","","","","","","","","","","","","","","",""
"null","audio/foe1.wav","null","audio-keyboard-response","224","2.1.0","518804","F=YES, J=NO","w44kz439vj","1","75","85","65","","","","","","","","","","","","","","","",""
"881","
          <p id=""word"" style=""font-size: 40px;"">creth</p>
          <p style=""font-size: 16px;"">F = YES &nbsp;&nbsp;&nbsp; J = NO</p>
        ","j","html-keyboard-response","225","2.1.0","519686","F=YES, J=NO","w44kz439vj","1","75","85","65","","","","","","","","","creth","foe1","pseudoword","pseudoword","j","true","",""
"null","<p style=""font-size: 50px;"">+</p>","null","html-keyboard-response","226","2.1.0","519989","F=YES, J=NO","w44kz439vj","1","75","85","65","","","","","","","","","","","","","","","",""
"null","audio/beep-329314.mp3","null","audio-keyboard-response","227","2.1.0","521513","F=YES, J=NO","w44kz439vj","1","75","85","65","","","","","","","","","","","","","","","",""
"null","audio/fortune1.wav","null","audio-keyboard-response","228","2.1.0","522303","F=YES, J=NO","w44kz439vj","1","75","85","65","","","","","","","","","","","","","","","",""
"609","
          <p id=""word"" style=""font-size: 40px;"">spend</p>
          <p style=""font-size: 16px;"">F = YES &nbsp;&nbsp;&nbsp; J = NO</p>
        ","f","html-keyboard-response","229","2.1.0","522912","F=YES, J=NO","w44kz439vj","1","75","85","65","","","","","","","","","spend","fortune1","literal","experimental","f","true","",""
"5503","<p>Excellent! You have finished block 1 of 8.</p>
                     <p>Feel free to take a 30 second break.</p>
                     <p>Press any key when you're ready to continue.</p>"," ","html-keyboard-response","230","2.1.0","528416","F=YES, J=NO","w44kz439vj","1","75","85","65","","","","","","","","","","","","","","","",""
"948","<p>Starting main block 2 of 8. Press any key to continue.</p>"," ","html-keyboard-response","231","2.1.0","529365","F=YES, J=NO","w44kz439vj","1","75","85","65","","","","","","","","","","","","","","","",""
"null","<p style=""font-size: 50px;"">+</p>","null","html-keyboard-response","232","2.1.0","529666","F=YES, J=NO","w44kz439vj","1","75","85","65","","","","","","","","","","","","","","","",""
"null","audio/beep-329314.mp3","null","audio-keyboard-response","233","2.1.0","531199","F=YES, J=NO","w44kz439vj","1","75","85","65","","","","","","","","","","","","","","","",""
"null","audio/burden.wav","null","audio-keyboard-response","234","2.1.0","531903","F=YES, J=NO","w44kz439vj","1","75","85","65","","","","","","","","","","","","","","","",""
"523","
          <p id=""word"" style=""font-size: 40px;"">carry</p>
          <p style=""font-size: 16px;"">F = YES &nbsp;&nbsp;&nbsp; J = NO</p>
        ","f","html-keyboard-response","235","2.1.0","532427","F=YES, J=NO","w44kz439vj","1","75","85","65","","","","","","","","","carry","burden","metaphor","experimental","f","true","",""
"null","<p style=""font-size: 50px;"">+</p>","null","html-keyboard-response","236","2.1.0","532730","F=YES, J=NO","w44kz439vj","1","75","85","65","","","","","","","","","","","","","","","",""
"null","audio/beep-329314.mp3","null","audio-keyboard-response","237","2.1.0","534250","F=YES, J=NO","w44kz439vj","1","75","85","65","","","","","","","","","","","","","","","",""
"null","audio/survey1.wav","null","audio-keyboard-response","238","2.1.0","534996","F=YES, J=NO","w44kz439vj","1","75","85","65","","","","","","","","","","","","","","","",""
"717","
          <p id=""word"" style=""font-size: 40px;"">imploth</p>
          <p style=""font-size: 16px;"">F = YES &nbsp;&nbsp;&nbsp; J = NO</p>
        ","j","html-keyboard-response","239","2.1.0","535714","F=YES, J=NO","w44kz439vj","1","75","85","65","","","","","","","","","imploth","survey1","pseudoword","pseudoword","j","true","",""
"null","<p style=""font-size: 50px;"">+</p>","null","html-keyboard-response","240","2.1.0","536019","F=YES, J=NO","w44kz439vj","1","75","85","65","","","","","","","","","","","","","","","",""
"null","audio/beep-329314.mp3","null","audio-keyboard-response","241","2.1.0","537556","F=YES, J=NO","w44kz439vj","1","75","85","65","","","","","","","","","","","","","","","",""
"null","audio/belief.wav","null","audio-keyboard-response","242","2.1.0","538175","F=YES, J=NO","w44kz439vj","1","75","85","65","","","","","","","","","","","","","","","",""
"740","
          <p id=""word"" style=""font-size: 40px;"">share</p>
          <p style=""font-size: 16px;"">F = YES &nbsp;&nbsp;&nbsp; J = NO</p>
        ","f","html-keyboard-response","243","2.1.0","538916","F=YES, J=NO","w44kz439vj","1","75","85","65","","","","","","","","","share","belief","metaphor","experimental","f","true","",""
"null","<p style=""font-size: 50px;"">+</p>","null","html-keyboard-response","244","2.1.0","539224","F=YES, J=NO","w44kz439vj","1","75","85","65","","","","","","","","","","","","","","","",""
"null","audio/beep-329314.mp3","null","audio-keyboard-response","245","2.1.0","540756","F=YES, J=NO","w44kz439vj","1","75","85","65","","","","","","","","","","","","","","","",""
"null","audio/trout1.wav","null","audio-keyboard-response","246","2.1.0","541524","F=YES, J=NO","w44kz439vj","1","75","85","65","","","","","","","","","","","","","","","",""
"698","
          <p id=""word"" style=""font-size: 40px;"">catch</p>
          <p style=""font-size: 16px;"">F = YES &nbsp;&nbsp;&nbsp; J = NO</p>
        ","f","html-keyboard-response","247","2.1.0","542223","F=YES, J=NO","w44kz439vj","1","75","85","65","","","","","","","","","catch","trout1","literal","experimental","f","true","",""
"null","<p style=""font-size: 50px;"">+</p>","null","html-keyboard-response","248","2.1.0","542537","F=YES, J=NO","w44kz439vj","1","75","85","65","","","","","","","","","","","","","","","",""
"null","audio/beep-329314.mp3","null","audio-keyboard-response","249","2.1.0","544063","F=YES, J=NO","w44kz439vj","1","75","85","65","","","","","","","","","","","","","","","",""
"null","audio/corpse1.wav","null","audio-keyboard-response","250","2.1.0","544703","F=YES, J=NO","w44kz439vj","1","75","85","65","","","","","","","","","","","","","","","",""
"559","
          <p id=""word"" style=""font-size: 40px;"">bury</p>
          <p style=""font-size: 16px;"">F = YES &nbsp;&nbsp;&nbsp; J = NO</p>
        ","f","html-keyboard-response","251","2.1.0","545263","F=YES, J=NO","w44kz439vj","1","75","85","65","","","","","","","","","bury","corpse1","literal","experimental","f","true","",""
"null","<p style=""font-size: 50px;"">+</p>","null","html-keyboard-response","252","2.1.0","545573","F=YES, J=NO","w44kz439vj","1","75","85","65","","","","","","","","","","","","","","","",""
"null","audio/beep-329314.mp3","null","audio-keyboard-response","253","2.1.0","547092","F=YES, J=NO","w44kz439vj","1","75","85","65","","","","","","","","","","","","","","","",""
"null","audio/empire.wav","null","audio-keyboard-response","254","2.1.0","547774","F=YES, J=NO","w44kz439vj","1","75","85","65","","","","","","","","","","","","","","","",""
"803","
          <p id=""word"" style=""font-size: 40px;"">slorby</p>
          <p style=""font-size: 16px;"">F = YES &nbsp;&nbsp;&nbsp; J = NO</p>
        ","j","html-keyboard-response","255","2.1.0","548578","F=YES, J=NO","w44kz439vj","1","75","85","65","","","","","","","","","slorby","empire","pseudoword","pseudoword","j","true","",""
"null","<p style=""font-size: 50px;"">+</p>","null","html-keyboard-response","256","2.1.0","548890","F=YES, J=NO","w44kz439vj","1","75","85","65","","","","","","","","","","","","","","","",""
"null","audio/beep-329314.mp3","null","audio-keyboard-response","257","2.1.0","550420","F=YES, J=NO","w44kz439vj","1","75","85","65","","","","","","","","","","","","","","","",""
"null","audio/mood1.wav","null","audio-keyboard-response","258","2.1.0","550889","F=YES, J=NO","w44kz439vj","1","75","85","65","","","","","","","","","","","","","","","",""
"578","
          <p id=""word"" style=""font-size: 40px;"">give</p>
          <p style=""font-size: 16px;"">F = YES &nbsp;&nbsp;&nbsp; J = NO</p>
        ","f","html-keyboard-response","259","2.1.0","551468","F=YES, J=NO","w44kz439vj","1","75","85","65","","","","","","","","","give","mood1","unrelated","experimental","f","true","",""
"null","<p style=""font-size: 50px;"">+</p>","null","html-keyboard-response","260","2.1.0","551776","F=YES, J=NO","w44kz439vj","1","75","85","65","","","","","","","","","","","","","","","",""
"null","audio/beep-329314.mp3","null","audio-keyboard-response","261","2.1.0","553300","F=YES, J=NO","w44kz439vj","1","75","85","65","","","","","","","","","","","","","","","",""
"null","audio/test1.wav","null","audio-keyboard-response","262","2.1.0","553898","F=YES, J=NO","w44kz439vj","1","75","85","65","","","","","","","","","","","","","","","",""
"676","
          <p id=""word"" style=""font-size: 40px;"">twopch</p>
          <p style=""font-size: 16px;"">F = YES &nbsp;&nbsp;&nbsp; J = NO</p>
        ","j","html-keyboard-response","263","2.1.0","554575","F=YES, J=NO","w44kz439vj","1","75","85","65","","","","","","","","","twopch","test1","pseudoword","pseudoword","j","true","",""
"null","<p style=""font-size: 50px;"">+</p>","null","html-keyboard-response","264","2.1.0","554879","F=YES, J=NO","w44kz439vj","1","75","85","65","","","","","","","","","","","","","","","",""
"null","audio/beep-329314.mp3","null","audio-keyboard-response","265","2.1.0","556414","F=YES, J=NO","w44kz439vj","1","75","85","65","","","","","","","","","","","","","","","",""
"null","audio/truth1.wav","null","audio-keyboard-response","266","2.1.0","557033","F=YES, J=NO","w44kz439vj","1","75","85","65","","","","","","","","","","","","","","","",""
"830","
          <p id=""word"" style=""font-size: 40px;"">calitom</p>
          <p style=""font-size: 16px;"">F = YES &nbsp;&nbsp;&nbsp; J = NO</p>
        ","j","html-keyboard-response","267","2.1.0","557864","F=YES, J=NO","w44kz439vj","1","75","85","65","","","","","","","","","calitom","truth1","pseudoword","pseudoword","j","true","",""
"null","<p style=""font-size: 50px;"">+</p>","null","html-keyboard-response","268","2.1.0","558178","F=YES, J=NO","w44kz439vj","1","75","85","65","","","","","","","","","","","","","","","",""
"null","audio/beep-329314.mp3","null","audio-keyboard-response","269","2.1.0","559700","F=YES, J=NO","w44kz439vj","1","75","85","65","","","","","","","","","","","","","","","",""
"null","audio/plot1.wav","null","audio-keyboard-response","270","2.1.0","560319","F=YES, J=NO","w44kz439vj","1","75","85","65","","","","","","","","","","","","","","","",""
"810","
          <p id=""word"" style=""font-size: 40px;"">glenter</p>
          <p style=""font-size: 16px;"">F = YES &nbsp;&nbsp;&nbsp; J = NO</p>
        ","j","html-keyboard-response","271","2.1.0","561129","F=YES, J=NO","w44kz439vj","1","75","85","65","","","","","","","","","glenter","plot1","pseudoword","pseudoword","j","true","",""
"null","<p style=""font-size: 50px;"">+</p>","null","html-keyboard-response","272","2.1.0","561443","F=YES, J=NO","w44kz439vj","1","75","85","65","","","","","","","","","","","","","","","",""
"null","audio/beep-329314.mp3","null","audio-keyboard-response","273","2.1.0","562964","F=YES, J=NO","w44kz439vj","1","75","85","65","","","","","","","","","","","","","","","",""
"null","audio/cottage1.wav","null","audio-keyboard-response","274","2.1.0","563626","F=YES, J=NO","w44kz439vj","1","75","85","65","","","","","","","","","","","","","","","",""
"512","
          <p id=""word"" style=""font-size: 40px;"">release</p>
          <p style=""font-size: 16px;"">F = YES &nbsp;&nbsp;&nbsp; J = NO</p>
        ","f","html-keyboard-response","275","2.1.0","564138","F=YES, J=NO","w44kz439vj","1","75","85","65","","","","","","","","","release","cottage1","unrelated","experimental","f","true","",""
"null","<p style=""font-size: 50px;"">+</p>","null","html-keyboard-response","276","2.1.0","564442","F=YES, J=NO","w44kz439vj","1","75","85","65","","","","","","","","","","","","","","","",""
"null","audio/beep-329314.mp3","null","audio-keyboard-response","277","2.1.0","565973","F=YES, J=NO","w44kz439vj","1","75","85","65","","","","","","","","","","","","","","","",""
"null","audio/church1.wav","null","audio-keyboard-response","278","2.1.0","566655","F=YES, J=NO","w44kz439vj","1","75","85","65","","","","","","","","","","","","","","","",""
"400","
          <p id=""word"" style=""font-size: 40px;"">cover</p>
          <p style=""font-size: 16px;"">F = YES &nbsp;&nbsp;&nbsp; J = NO</p>
        ","f","html-keyboard-response","279","2.1.0","567055","F=YES, J=NO","w44kz439vj","1","75","85","65","","","","","","","","","cover","church1","unrelated","experimental","f","true","",""
"null","<p style=""font-size: 50px;"">+</p>","null","html-keyboard-response","280","2.1.0","567368","F=YES, J=NO","w44kz439vj","1","75","85","65","","","","","","","","","","","","","","","",""
"null","audio/beep-329314.mp3","null","audio-keyboard-response","281","2.1.0","568895","F=YES, J=NO","w44kz439vj","1","75","85","65","","","","","","","","","","","","","","","",""
"null","audio/pig.wav","null","audio-keyboard-response","282","2.1.0","569279","F=YES, J=NO","w44kz439vj","1","75","85","65","","","","","","","","","","","","","","","",""
"768","
          <p id=""word"" style=""font-size: 40px;"">tirlike</p>
          <p style=""font-size: 16px;"">F = YES &nbsp;&nbsp;&nbsp; J = NO</p>
        ","j","html-keyboard-response","283","2.1.0","570047","F=YES, J=NO","w44kz439vj","1","75","85","65","","","","","","","","","tirlike","pig","pseudoword","pseudoword","j","true","",""
"null","<p style=""font-size: 50px;"">+</p>","null","html-keyboard-response","284","2.1.0","570349","F=YES, J=NO","w44kz439vj","1","75","85","65","","","","","","","","","","","","","","","",""
"null","audio/beep-329314.mp3","null","audio-keyboard-response","285","2.1.0","571881","F=YES, J=NO","w44kz439vj","1","75","85","65","","","","","","","","","","","","","","","",""
"null","audio/planet1.wav","null","audio-keyboard-response","286","2.1.0","572671","F=YES, J=NO","w44kz439vj","1","75","85","65","","","","","","","","","","","","","","","",""
"496","
          <p id=""word"" style=""font-size: 40px;"">save</p>
          <p style=""font-size: 16px;"">F = YES &nbsp;&nbsp;&nbsp; J = NO</p>
        ","f","html-keyboard-response","287","2.1.0","573167","F=YES, J=NO","w44kz439vj","1","75","85","65","","","","","","","","","save","planet1","metaphor","experimental","f","true","",""
"null","<p style=""font-size: 50px;"">+</p>","null","html-keyboard-response","288","2.1.0","573478","F=YES, J=NO","w44kz439vj","1","75","85","65","","","","","","","","","","","","","","","",""
"null","audio/beep-329314.mp3","null","audio-keyboard-response","289","2.1.0","574996","F=YES, J=NO","w44kz439vj","1","75","85","65","","","","","","","","","","","","","","","",""
"null","audio/gossip1.wav","null","audio-keyboard-response","290","2.1.0","575657","F=YES, J=NO","w44kz439vj","1","75","85","65","","","","","","","","","","","","","","","",""
"998","
          <p id=""word"" style=""font-size: 40px;"">camerish</p>
          <p style=""font-size: 16px;"">F = YES &nbsp;&nbsp;&nbsp; J = NO</p>
        ","j","html-keyboard-response","291","2.1.0","576656","F=YES, J=NO","w44kz439vj","1","75","85","65","","","","","","","","","camerish","gossip1","pseudoword","pseudoword","j","true","",""
"null","<p style=""font-size: 50px;"">+</p>","null","html-keyboard-response","292","2.1.0","576967","F=YES, J=NO","w44kz439vj","1","75","85","65","","","","","","","","","","","","","","","",""
"null","audio/beep-329314.mp3","null","audio-keyboard-response","293","2.1.0","578495","F=YES, J=NO","w44kz439vj","1","75","85","65","","","","","","","","","","","","","","","",""
"null","audio/table1.wav","null","audio-keyboard-response","294","2.1.0","579028","F=YES, J=NO","w44kz439vj","1","75","85","65","","","","","","","","","","","","","","","",""
"512","
          <p id=""word"" style=""font-size: 40px;"">clear</p>
          <p style=""font-size: 16px;"">F = YES &nbsp;&nbsp;&nbsp; J = NO</p>
        ","f","html-keyboard-response","295","2.1.0","579540","F=YES, J=NO","w44kz439vj","1","75","85","65","","","","","","","","","clear","table1","literal","experimental","f","true","",""
"7922","<p>Excellent! You have finished block 2 of 8.</p>
                     <p>Feel free to take a 30 second break.</p>
                     <p>Press any key when you're ready to continue.</p>"," ","html-keyboard-response","296","2.1.0","587464","F=YES, J=NO","w44kz439vj","1","75","85","65","","","","","","","","","","","","","","","",""
"1492","<p>Starting main block 3 of 8. Press any key to continue.</p>"," ","html-keyboard-response","297","2.1.0","588956","F=YES, J=NO","w44kz439vj","1","75","85","65","","","","","","","","","","","","","","","",""
"null","<p style=""font-size: 50px;"">+</p>","null","html-keyboard-response","298","2.1.0","589268","F=YES, J=NO","w44kz439vj","1","75","85","65","","","","","","","","","","","","","","","",""
"null","audio/beep-329314.mp3","null","audio-keyboard-response","299","2.1.0","590772","F=YES, J=NO","w44kz439vj","1","75","85","65","","","","","","","","","","","","","","","",""
"null","audio/seat.wav","null","audio-keyboard-response","300","2.1.0","591401","F=YES, J=NO","w44kz439vj","1","75","85","65","","","","","","","","","","","","","","","",""
"555","
          <p id=""word"" style=""font-size: 40px;"">digest</p>
          <p style=""font-size: 16px;"">F = YES &nbsp;&nbsp;&nbsp; J = NO</p>
        ","f","html-keyboard-response","301","2.1.0","591957","F=YES, J=NO","w44kz439vj","1","75","85","65","","","","","","","","","digest","seat","unrelated","experimental","f","true","",""
"null","<p style=""font-size: 50px;"">+</p>","null","html-keyboard-response","302","2.1.0","592275","F=YES, J=NO","w44kz439vj","1","75","85","65","","","","","","","","","","","","","","","",""
"null","audio/beep-329314.mp3","null","audio-keyboard-response","303","2.1.0","593801","F=YES, J=NO","w44kz439vj","1","75","85","65","","","","","","","","","","","","","","","",""
"null","audio/effort.wav","null","audio-keyboard-response","304","2.1.0","594388","F=YES, J=NO","w44kz439vj","1","75","85","65","","","","","","","","","","","","","","","",""
"640","
          <p id=""word"" style=""font-size: 40px;"">whonk</p>
          <p style=""font-size: 16px;"">F = YES &nbsp;&nbsp;&nbsp; J = NO</p>
        ","j","html-keyboard-response","305","2.1.0","595029","F=YES, J=NO","w44kz439vj","1","75","85","65","","","","","","","","","whonk","effort","pseudoword","pseudoword","j","true","",""
"null","<p style=""font-size: 50px;"">+</p>","null","html-keyboard-response","306","2.1.0","595341","F=YES, J=NO","w44kz439vj","1","75","85","65","","","","","","","","","","","","","","","",""
"null","audio/beep-329314.mp3","null","audio-keyboard-response","307","2.1.0","596874","F=YES, J=NO","w44kz439vj","1","75","85","65","","","","","","","","","","","","","","","",""
"null","audio/noise1.wav","null","audio-keyboard-response","308","2.1.0","597652","F=YES, J=NO","w44kz439vj","1","75","85","65","","","","","","","","","","","","","","","",""
"838","
          <p id=""word"" style=""font-size: 40px;"">slintered</p>
          <p style=""font-size: 16px;"">F = YES &nbsp;&nbsp;&nbsp; J = NO</p>
        ","j","html-keyboard-response","309","2.1.0","598490","F=YES, J=NO","w44kz439vj","1","75","85","65","","","","","","","","","slintered","noise1","pseudoword","pseudoword","j","true","",""
"null","<p style=""font-size: 50px;"">+</p>","null","html-keyboard-response","310","2.1.0","598802","F=YES, J=NO","w44kz439vj","1","75","85","65","","","","","","","","","","","","","","","",""
"null","audio/beep-329314.mp3","null","audio-keyboard-response","311","2.1.0","600330","F=YES, J=NO","w44kz439vj","1","75","85","65","","","","","","","","","","","","","","","",""
"null","audio/gold1.wav","null","audio-keyboard-response","312","2.1.0","600874","F=YES, J=NO","w44kz439vj","1","75","85","65","","","","","","","","","","","","","","","",""
"428","
          <p id=""word"" style=""font-size: 40px;"">sell</p>
          <p style=""font-size: 16px;"">F = YES &nbsp;&nbsp;&nbsp; J = NO</p>
        ","f","html-keyboard-response","313","2.1.0","601303","F=YES, J=NO","w44kz439vj","1","75","85","65","","","","","","","","","sell","gold1","literal","experimental","f","true","",""
"null","<p style=""font-size: 50px;"">+</p>","null","html-keyboard-response","314","2.1.0","601619","F=YES, J=NO","w44kz439vj","1","75","85","65","","","","","","","","","","","","","","","",""
"null","audio/beep-329314.mp3","null","audio-keyboard-response","315","2.1.0","603145","F=YES, J=NO","w44kz439vj","1","75","85","65","","","","","","","","","","","","","","","",""
"null","audio/strength.wav","null","audio-keyboard-response","316","2.1.0","603924","F=YES, J=NO","w44kz439vj","1","75","85","65","","","","","","","","","","","","","","","",""
"646","
          <p id=""word"" style=""font-size: 40px;"">plabet</p>
          <p style=""font-size: 16px;"">F = YES &nbsp;&nbsp;&nbsp; J = NO</p>
        ","j","html-keyboard-response","317","2.1.0","604571","F=YES, J=NO","w44kz439vj","1","75","85","65","","","","","","","","","plabet","strength","pseudoword","pseudoword","j","true","",""
"null","<p style=""font-size: 50px;"">+</p>","null","html-keyboard-response","318","2.1.0","604878","F=YES, J=NO","w44kz439vj","1","75","85","65","","","","","","","","","","","","","","","",""
"null","audio/beep-329314.mp3","null","audio-keyboard-response","319","2.1.0","606409","F=YES, J=NO","w44kz439vj","1","75","85","65","","","","","","","","","","","","","","","",""
"null","audio/scar.wav","null","audio-keyboard-response","320","2.1.0","607017","F=YES, J=NO","w44kz439vj","1","75","85","65","","","","","","","","","","","","","","","",""
"591","
          <p id=""word"" style=""font-size: 40px;"">adelineate</p>
          <p style=""font-size: 16px;"">F = YES &nbsp;&nbsp;&nbsp; J = NO</p>
        ","f","html-keyboard-response","321","2.1.0","607609","F=YES, J=NO","w44kz439vj","1","75","85","65","","","","","","","","","adelineate","scar","pseudoword","pseudoword","j","false","",""
"null","<p style=""font-size: 50px;"">+</p>","null","html-keyboard-response","322","2.1.0","607923","F=YES, J=NO","w44kz439vj","1","75","85","65","","","","","","","","","","","","","","","",""
"null","audio/beep-329314.mp3","null","audio-keyboard-response","323","2.1.0","609461","F=YES, J=NO","w44kz439vj","1","75","85","65","","","","","","","","","","","","","","","",""
"null","audio/fence.wav","null","audio-keyboard-response","324","2.1.0","610153","F=YES, J=NO","w44kz439vj","1","75","85","65","","","","","","","","","","","","","","","",""
"500","
          <p id=""word"" style=""font-size: 40px;"">trim</p>
          <p style=""font-size: 16px;"">F = YES &nbsp;&nbsp;&nbsp; J = NO</p>
        ","f","html-keyboard-response","325","2.1.0","610654","F=YES, J=NO","w44kz439vj","1","75","85","65","","","","","","","","","trim","fence","filler","filler","f","true","",""
"null","<p style=""font-size: 50px;"">+</p>","null","html-keyboard-response","326","2.1.0","610975","F=YES, J=NO","w44kz439vj","1","75","85","65","","","","","","","","","","","","","","","",""
"null","audio/beep-329314.mp3","null","audio-keyboard-response","327","2.1.0","612510","F=YES, J=NO","w44kz439vj","1","75","85","65","","","","","","","","","","","","","","","",""
"null","audio/meal.wav","null","audio-keyboard-response","328","2.1.0","613012","F=YES, J=NO","w44kz439vj","1","75","85","65","","","","","","","","","","","","","","","",""
"779","
          <p id=""word"" style=""font-size: 40px;"">gallite</p>
          <p style=""font-size: 16px;"">F = YES &nbsp;&nbsp;&nbsp; J = NO</p>
        ","j","html-keyboard-response","329","2.1.0","613791","F=YES, J=NO","w44kz439vj","1","75","85","65","","","","","","","","","gallite","meal","pseudoword","pseudoword","j","true","",""
"null","<p style=""font-size: 50px;"">+</p>","null","html-keyboard-response","330","2.1.0","614105","F=YES, J=NO","w44kz439vj","1","75","85","65","","","","","","","","","","","","","","","",""
"null","audio/beep-329314.mp3","null","audio-keyboard-response","331","2.1.0","615625","F=YES, J=NO","w44kz439vj","1","75","85","65","","","","","","","","","","","","","","","",""
"null","audio/cloud1.wav","null","audio-keyboard-response","332","2.1.0","616169","F=YES, J=NO","w44kz439vj","1","75","85","65","","","","","","","","","","","","","","","",""
"651","
          <p id=""word"" style=""font-size: 40px;"">scrap</p>
          <p style=""font-size: 16px;"">F = YES &nbsp;&nbsp;&nbsp; J = NO</p>
        ","f","html-keyboard-response","333","2.1.0","616820","F=YES, J=NO","w44kz439vj","1","75","85","65","","","","","","","","","scrap","cloud1","unrelated","experimental","f","true","",""
"null","<p style=""font-size: 50px;"">+</p>","null","html-keyboard-response","334","2.1.0","617129","F=YES, J=NO","w44kz439vj","1","75","85","65","","","","","","","","","","","","","","","",""
"null","audio/beep-329314.mp3","null","audio-keyboard-response","335","2.1.0","618655","F=YES, J=NO","w44kz439vj","1","75","85","65","","","","","","","","","","","","","","","",""
"null","audio/baby.wav","null","audio-keyboard-response","336","2.1.0","619114","F=YES, J=NO","w44kz439vj","1","75","85","65","","","","","","","","","","","","","","","",""
"552","
          <p id=""word"" style=""font-size: 40px;"">hold</p>
          <p style=""font-size: 16px;"">F = YES &nbsp;&nbsp;&nbsp; J = NO</p>
        ","f","html-keyboard-response","337","2.1.0","619666","F=YES, J=NO","w44kz439vj","1","75","85","65","","","","","","","","","hold","baby","literal","experimental","f","true","",""
"null","<p style=""font-size: 50px;"">+</p>","null","html-keyboard-response","338","2.1.0","619987","F=YES, J=NO","w44kz439vj","1","75","85","65","","","","","","","","","","","","","","","",""
"null","audio/beep-329314.mp3","null","audio-keyboard-response","339","2.1.0","621514","F=YES, J=NO","w44kz439vj","1","75","85","65","","","","","","","","","","","","","","","",""
"null","audio/voice.wav","null","audio-keyboard-response","340","2.1.0","622100","F=YES, J=NO","w44kz439vj","1","75","85","65","","","","","","","","","","","","","","","",""
"562","
          <p id=""word"" style=""font-size: 40px;"">flood</p>
          <p style=""font-size: 16px;"">F = YES &nbsp;&nbsp;&nbsp; J = NO</p>
        ","f","html-keyboard-response","341","2.1.0","622662","F=YES, J=NO","w44kz439vj","1","75","85","65","","","","","","","","","flood","voice","unrelated","experimental","f","true","",""
"null","<p style=""font-size: 50px;"">+</p>","null","html-keyboard-response","342","2.1.0","622968","F=YES, J=NO","w44kz439vj","1","75","85","65","","","","","","","","","","","","","","","",""
"null","audio/beep-329314.mp3","null","audio-keyboard-response","343","2.1.0","624500","F=YES, J=NO","w44kz439vj","1","75","85","65","","","","","","","","","","","","","","","",""
"null","audio/van1.wav","null","audio-keyboard-response","344","2.1.0","625044","F=YES, J=NO","w44kz439vj","1","75","85","65","","","","","","","","","","","","","","","",""
"469","
          <p id=""word"" style=""font-size: 40px;"">support</p>
          <p style=""font-size: 16px;"">F = YES &nbsp;&nbsp;&nbsp; J = NO</p>
        ","f","html-keyboard-response","345","2.1.0","625514","F=YES, J=NO","w44kz439vj","1","75","85","65","","","","","","","","","support","van1","unrelated","experimental","f","true","",""
"null","<p style=""font-size: 50px;"">+</p>","null","html-keyboard-response","346","2.1.0","625821","F=YES, J=NO","w44kz439vj","1","75","85","65","","","","","","","","","","","","","","","",""
"null","audio/beep-329314.mp3","null","audio-keyboard-response","347","2.1.0","627358","F=YES, J=NO","w44kz439vj","1","75","85","65","","","","","","","","","","","","","","","",""
"null","audio/trout1.wav","null","audio-keyboard-response","348","2.1.0","627945","F=YES, J=NO","w44kz439vj","1","75","85","65","","","","","","","","","","","","","","","",""
"1156","
          <p id=""word"" style=""font-size: 40px;"">spimt</p>
          <p style=""font-size: 16px;"">F = YES &nbsp;&nbsp;&nbsp; J = NO</p>
        ","j","html-keyboard-response","349","2.1.0","629102","F=YES, J=NO","w44kz439vj","1","75","85","65","","","","","","","","","spimt","trout1","pseudoword","pseudoword","j","true","",""
"null","<p style=""font-size: 50px;"">+</p>","null","html-keyboard-response","350","2.1.0","629411","F=YES, J=NO","w44kz439vj","1","75","85","65","","","","","","","","","","","","","","","",""
"null","audio/beep-329314.mp3","null","audio-keyboard-response","351","2.1.0","630942","F=YES, J=NO","w44kz439vj","1","75","85","65","","","","","","","","","","","","","","","",""
"null","audio/grass.wav","null","audio-keyboard-response","352","2.1.0","631594","F=YES, J=NO","w44kz439vj","1","75","85","65","","","","","","","","","","","","","","","",""
"1035","
          <p id=""word"" style=""font-size: 40px;"">milames</p>
          <p style=""font-size: 16px;"">F = YES &nbsp;&nbsp;&nbsp; J = NO</p>
        ","j","html-keyboard-response","353","2.1.0","632630","F=YES, J=NO","w44kz439vj","1","75","85","65","","","","","","","","","milames","grass","pseudoword","pseudoword","j","true","",""
"null","<p style=""font-size: 50px;"">+</p>","null","html-keyboard-response","354","2.1.0","632936","F=YES, J=NO","w44kz439vj","1","75","85","65","","","","","","","","","","","","","","","",""
"null","audio/beep-329314.mp3","null","audio-keyboard-response","355","2.1.0","634463","F=YES, J=NO","w44kz439vj","1","75","85","65","","","","","","","","","","","","","","","",""
"null","audio/beach1.wav","null","audio-keyboard-response","356","2.1.0","635114","F=YES, J=NO","w44kz439vj","1","75","85","65","","","","","","","","","","","","","","","",""
"497","
          <p id=""word"" style=""font-size: 40px;"">drive</p>
          <p style=""font-size: 16px;"">F = YES &nbsp;&nbsp;&nbsp; J = NO</p>
        ","f","html-keyboard-response","357","2.1.0","635611","F=YES, J=NO","w44kz439vj","1","75","85","65","","","","","","","","","drive","beach1","filler","filler","f","true","",""
"null","<p style=""font-size: 50px;"">+</p>","null","html-keyboard-response","358","2.1.0","635925","F=YES, J=NO","w44kz439vj","1","75","85","65","","","","","","","","","","","","","","","",""
"null","audio/beep-329314.mp3","null","audio-keyboard-response","359","2.1.0","637449","F=YES, J=NO","w44kz439vj","1","75","85","65","","","","","","","","","","","","","","","",""
"null","audio/van1.wav","null","audio-keyboard-response","360","2.1.0","637929","F=YES, J=NO","w44kz439vj","1","75","85","65","","","","","","","","","","","","","","","",""
"null","
          <p id=""word"" style=""font-size: 40px;"">push</p>
          <p style=""font-size: 16px;"">F = YES &nbsp;&nbsp;&nbsp; J = NO</p>
        ","null","html-keyboard-response","361","2.1.0","639431","F=YES, J=NO","w44kz439vj","1","75","85","65","","","","","","","","","push","van1","filler","filler","f","false","",""
"21","<p>Excellent! You have finished block 3 of 8.</p>
                     <p>Feel free to take a 30 second break.</p>
                     <p>Press any key when you're ready to continue.</p>","f","html-keyboard-response","362","2.1.0","639453","F=YES, J=NO","w44kz439vj","1","75","85","65","","","","","","","","","","","","","","","",""
"59507","<p>Starting main block 4 of 8. Press any key to continue.</p>"," ","html-keyboard-response","363","2.1.0","698960","F=YES, J=NO","w44kz439vj","1","75","85","65","","","","","","","","","","","","","","","",""
"null","<p style=""font-size: 50px;"">+</p>","null","html-keyboard-response","364","2.1.0","699265","F=YES, J=NO","w44kz439vj","1","75","85","65","","","","","","","","","","","","","","","",""
"null","audio/beep-329314.mp3","null","audio-keyboard-response","365","2.1.0","700886","F=YES, J=NO","w44kz439vj","1","75","85","65","","","","","","","","","","","","","","","",""
"null","audio/pattern.wav","null","audio-keyboard-response","366","2.1.0","701568","F=YES, J=NO","w44kz439vj","1","75","85","65","","","","","","","","","","","","","","","",""
"857","
          <p id=""word"" style=""font-size: 40px;"">tug</p>
          <p style=""font-size: 16px;"">F = YES &nbsp;&nbsp;&nbsp; J = NO</p>
        ","f","html-keyboard-response","367","2.1.0","702426","F=YES, J=NO","w44kz439vj","1","75","85","65","","","","","","","","","tug","pattern","filler","filler","f","true","",""
"null","<p style=""font-size: 50px;"">+</p>","null","html-keyboard-response","368","2.1.0","702740","F=YES, J=NO","w44kz439vj","1","75","85","65","","","","","","","","","","","","","","","",""
"null","audio/beep-329314.mp3","null","audio-keyboard-response","369","2.1.0","704277","F=YES, J=NO","w44kz439vj","1","75","85","65","","","","","","","","","","","","","","","",""
"null","audio/topic.wav","null","audio-keyboard-response","370","2.1.0","704917","F=YES, J=NO","w44kz439vj","1","75","85","65","","","","","","","","","","","","","","","",""
"814","
          <p id=""word"" style=""font-size: 40px;"">infortuitist</p>
          <p style=""font-size: 16px;"">F = YES &nbsp;&nbsp;&nbsp; J = NO</p>
        ","j","html-keyboard-response","371","2.1.0","705733","F=YES, J=NO","w44kz439vj","1","75","85","65","","","","","","","","","infortuitist","topic","pseudoword","pseudoword","j","true","",""
"null","<p style=""font-size: 50px;"">+</p>","null","html-keyboard-response","372","2.1.0","706047","F=YES, J=NO","w44kz439vj","1","75","85","65","","","","","","","","","","","","","","","",""
"null","audio/beep-329314.mp3","null","audio-keyboard-response","373","2.1.0","707584","F=YES, J=NO","w44kz439vj","1","75","85","65","","","","","","","","","","","","","","","",""
"null","audio/dollar.wav","null","audio-keyboard-response","374","2.1.0","707969","F=YES, J=NO","w44kz439vj","1","75","85","65","","","","","","","","","","","","","","","",""
"714","
          <p id=""word"" style=""font-size: 40px;"">gliptism</p>
          <p style=""font-size: 16px;"">F = YES &nbsp;&nbsp;&nbsp; J = NO</p>
        ","j","html-keyboard-response","375","2.1.0","708683","F=YES, J=NO","w44kz439vj","1","75","85","65","","","","","","","","","gliptism","dollar","pseudoword","pseudoword","j","true","",""
"null","<p style=""font-size: 50px;"">+</p>","null","html-keyboard-response","376","2.1.0","708987","F=YES, J=NO","w44kz439vj","1","75","85","65","","","","","","","","","","","","","","","",""
"null","audio/beep-329314.mp3","null","audio-keyboard-response","377","2.1.0","710507","F=YES, J=NO","w44kz439vj","1","75","85","65","","","","","","","","","","","","","","","",""
"null","audio/dome.wav","null","audio-keyboard-response","378","2.1.0","710934","F=YES, J=NO","w44kz439vj","1","75","85","65","","","","","","","","","","","","","","","",""
"662","
          <p id=""word"" style=""font-size: 40px;"">scrupliness</p>
          <p style=""font-size: 16px;"">F = YES &nbsp;&nbsp;&nbsp; J = NO</p>
        ","f","html-keyboard-response","379","2.1.0","711597","F=YES, J=NO","w44kz439vj","1","75","85","65","","","","","","","","","scrupliness","dome","pseudoword","pseudoword","j","false","",""
"null","<p style=""font-size: 50px;"">+</p>","null","html-keyboard-response","380","2.1.0","711911","F=YES, J=NO","w44kz439vj","1","75","85","65","","","","","","","","","","","","","","","",""
"null","audio/beep-329314.mp3","null","audio-keyboard-response","381","2.1.0","713429","F=YES, J=NO","w44kz439vj","1","75","85","65","","","","","","","","","","","","","","","",""
"null","audio/cash1.wav","null","audio-keyboard-response","382","2.1.0","714176","F=YES, J=NO","w44kz439vj","1","75","85","65","","","","","","","","","","","","","","","",""
"912","
          <p id=""word"" style=""font-size: 40px;"">splear</p>
          <p style=""font-size: 16px;"">F = YES &nbsp;&nbsp;&nbsp; J = NO</p>
        ","j","html-keyboard-response","383","2.1.0","715088","F=YES, J=NO","w44kz439vj","1","75","85","65","","","","","","","","","splear","cash1","pseudoword","pseudoword","j","true","",""
"null","<p style=""font-size: 50px;"">+</p>","null","html-keyboard-response","384","2.1.0","715392","F=YES, J=NO","w44kz439vj","1","75","85","65","","","","","","","","","","","","","","","",""
"null","audio/beep-329314.mp3","null","audio-keyboard-response","385","2.1.0","716928","F=YES, J=NO","w44kz439vj","1","75","85","65","","","","","","","","","","","","","","","",""
"null","audio/weight1.wav","null","audio-keyboard-response","386","2.1.0","717632","F=YES, J=NO","w44kz439vj","1","75","85","65","","","","","","","","","","","","","","","",""
"866","
          <p id=""word"" style=""font-size: 40px;"">crimsh</p>
          <p style=""font-size: 16px;"">F = YES &nbsp;&nbsp;&nbsp; J = NO</p>
        ","j","html-keyboard-response","387","2.1.0","718500","F=YES, J=NO","w44kz439vj","1","75","85","65","","","","","","","","","crimsh","weight1","pseudoword","pseudoword","j","true","",""
"null","<p style=""font-size: 50px;"">+</p>","null","html-keyboard-response","388","2.1.0","718814","F=YES, J=NO","w44kz439vj","1","75","85","65","","","","","","","","","","","","","","","",""
"null","audio/beep-329314.mp3","null","audio-keyboard-response","389","2.1.0","720341","F=YES, J=NO","w44kz439vj","1","75","85","65","","","","","","","","","","","","","","","",""
"null","audio/tunnel.wav","null","audio-keyboard-response","390","2.1.0","720768","F=YES, J=NO","w44kz439vj","1","75","85","65","","","","","","","","","","","","","","","",""
"1191","
          <p id=""word"" style=""font-size: 40px;"">gred</p>
          <p style=""font-size: 16px;"">F = YES &nbsp;&nbsp;&nbsp; J = NO</p>
