"rt","stimulus","response","trial_type","trial_index","plugin_version","time_elapsed","response_mapping","subject_id","list_index","lextale_score","lextale_word_score","lextale_nonword_score","success","timeout","failed_images","failed_audio","failed_video","task","isWord","isDummy","target","prime","prime_type","stimulus_type","correct_response","correct","section","question_order"
"6204","
    <div style=""max-width: 800px; margin: auto; text-align: left;"">
      <h2>STANFORD UNIVERSITY</h2>
      <h3>Research Information Sheet</h3>
      <p><strong>Protocol Director:</strong> Robert Hawkins<br>
      <strong>Protocol Title:</strong> Communication and social cognition in natural audiovisual contexts<br>
      <strong>IRB#:</strong> 77226</p>

      <p><strong>DESCRIPTION:</strong> You are invited to participate in a research study about language and communication. The purpose of the research is to understand how you interact and communicate with other people in naturalistic settings as a fluent English speaker. This research will be conducted through the Prolific platform, including participants from the US, UK, and Canada. If you decide to participate in this research, you will play a communication game in a group with one or more partners.</p>

      <p><strong>TIME INVOLVEMENT:</strong> The task will last the amount of time advertised on Prolific. You are free to withdraw from the study at any time.</p>

      <p><strong>RISKS AND BENEFITS:</strong> You may become frustrated if your partner gets distracted, or experience discomfort if other participants in your group send text that is inappropriate for the task. We ask you to please be respectful of other participants you might be interacting with to mitigate these risks. You may also experience discomfort when being asked to discuss or challenge emotionally salient political beliefs. Study data will be stored securely, in compliance with Stanford University standards, minimizing the risk of confidentiality breach. This study advances our scientific understanding of how people communicate and collaborate in naturalistic settings. This study may lead to further insights about what can go wrong in teamwork, suggest potential interventions to overcome these barriers, and help to develop assistive technologies that collaborate with human partners. We cannot and do not guarantee or promise that you will receive any benefits from this study.</p>

      <p><strong>PAYMENTS:</strong> You will receive payment in the amount advertised on Prolific. If you do not complete this study, you will receive prorated payment based on the time that you have spent. Additionally, you may be eligible for bonus payments as described in the instructions.</p>

      <p><strong>PARTICIPANT’S RIGHTS:</strong> If you have read this form and have decided to participate in this project, please understand your participation is voluntary and you have the right to withdraw your consent or discontinue participation at any time without penalty or loss of benefits to which you are otherwise entitled. The alternative is not to participate. You have the right to refuse to answer particular questions. The results of this research study may be presented at scientific or professional meetings or published in scientific journals. Your individual privacy will be maintained in all published and written data resulting from the study. In accordance with scientific norms, the data from this study may be used or shared with other researchers for future research (after removing personally identifying information) without additional consent from you.</p>

      <p><strong>CONTACT INFORMATION:</strong><br>
      Questions: If you have any questions, concerns or complaints about this research, its procedures, risks and benefits, contact the Protocol Director, Robert Hawkins (<a href=""mailto:rdhawkins@stanford.edu"">rdhawkins@stanford.edu</a>, 217-549-6923).<br>
      Independent Contact: If you are not satisfied with how this study is being conducted, or if you have any concerns, complaints, or general questions about the research or your rights as a participant, please contact the Stanford Institutional Review Board (IRB) to speak to someone independent of the research team at 650-723-2480 or toll free at 1-866-680-2906, or email at <a href=""mailto:irbnon-med@stanford.edu"">irbnon-med@stanford.edu</a>. You can also write to the Stanford IRB, Stanford University, 1705 El Camino Real, Palo Alto, CA 94306.</p>

      <p><strong>Please save or print a copy of this page for your records.</strong></p>
      <p>If you agree to participate in this research, click ""Continue"" below.</p>
    </div>
  ","0","html-button-response","0","2.1.0","6207","J=YES, F=NO","whx3wcp2ys","1","79","83","75","","","","","","","","","","","","","","","",""
"1740","
    <div style=""max-width: 800px; margin: auto; text-align: left;"">
      <h2>Welcome!</h2>
      <p>Thank you for participating in this study. The experiment consists of three parts:</p>
      <ol>
        <li>An English vocabulary test</li>
        <li>A main task in which you will hear and see words, and decide whether the written word is a real English word</li>
        <li>A brief survey about your background</li>
      </ol>
      <p>Each part will be introduced before it begins.</p>
      <p>Please make sure you are in a quiet environment and can hear audio clearly for the final task.</p>
      <p style=""margin-top: 2em;"">Press any key to begin.</p>
    </div>
  ","F11","html-keyboard-response","1","2.1.0","7948","J=YES, F=NO","whx3wcp2ys","1","79","83","75","","","","","","","","","","","","","","","",""
"","","","preload","2","2.1.0","11355","J=YES, F=NO","whx3wcp2ys","1","79","83","75","true","false","[]","[]","[]","","","","","","","","","","",""
"5277","
    <div style=""max-width: 800px; margin: auto; text-align: left;"">
      <h2>Part 1: Vocabulary Test</h2>
      <p>You will now complete the first part of the study: a short English vocabulary test.</p>
      <p>This test is called <strong>LexTALE</strong> and helps us get a general sense of your English proficiency.</p>
      <p style=""margin-top: 2em;"">Press any key to continue.</p>
    </div>
  "," ","html-keyboard-response","3","2.1.0","16634","J=YES, F=NO","whx3wcp2ys","1","79","83","75","","","","","","","","","","","","","","","",""
"13539","
    <div style=""max-width: 800px; margin: auto; text-align: left;"">
      <h2>LexTALE Vocabulary Test</h2>
      <p>In this test, you will see a series of letter strings—one at a time.</p>
      <p>Your task is to decide whether each string is a real English word.</p>
      <p><strong>Key responses:</strong></p>
      <ul>
        <li><strong>J</strong> = YES (real English word)</li>
        <li><strong>F</strong> = NO (not a real English word)</li>
      </ul>
      <p>There is no time limit, but please try to be accurate.</p>
      <p style=""margin-top: 2em;"">Press any key to begin.</p>
    </div>
  ","j","html-keyboard-response","4","2.1.0","30175","J=YES, F=NO","whx3wcp2ys","1","79","83","75","","","","","","","","","","","","","","","",""
"4953","
  <p style=""font-size: 40px;"">platery</p>
  <p style=""font-size: 16px;"">J = YES &nbsp;&nbsp;&nbsp; F = NO</p>
","j","html-keyboard-response","5","2.1.0","35129","J=YES, F=NO","whx3wcp2ys","1","79","83","75","","","","","","lextale","false","true","","","","","","","",""
"986","
  <p style=""font-size: 40px;"">denial</p>
  <p style=""font-size: 16px;"">J = YES &nbsp;&nbsp;&nbsp; F = NO</p>
","j","html-keyboard-response","6","2.1.0","36116","J=YES, F=NO","whx3wcp2ys","1","79","83","75","","","","","","lextale","true","true","","","","","","","",""
"2062","
  <p style=""font-size: 40px;"">marrit</p>
  <p style=""font-size: 16px;"">J = YES &nbsp;&nbsp;&nbsp; F = NO</p>
","j","html-keyboard-response","7","2.1.0","38179","J=YES, F=NO","whx3wcp2ys","1","79","83","75","","","","","","lextale","false","true","","","","","","","",""
"841","
  <p style=""font-size: 40px;"">bottle</p>
  <p style=""font-size: 16px;"">J = YES &nbsp;&nbsp;&nbsp; F = NO</p>
","j","html-keyboard-response","8","2.1.0","39020","J=YES, F=NO","whx3wcp2ys","1","79","83","75","","","","","","lextale","true","false","","","","","","","",""
"1074","
  <p style=""font-size: 40px;"">birst</p>
  <p style=""font-size: 16px;"">J = YES &nbsp;&nbsp;&nbsp; F = NO</p>
","f","html-keyboard-response","9","2.1.0","40096","J=YES, F=NO","whx3wcp2ys","1","79","83","75","","","","","","lextale","false","false","","","","","","","",""
"841","
  <p style=""font-size: 40px;"">envy</p>
  <p style=""font-size: 16px;"">J = YES &nbsp;&nbsp;&nbsp; F = NO</p>
","j","html-keyboard-response","10","2.1.0","40937","J=YES, F=NO","whx3wcp2ys","1","79","83","75","","","","","","lextale","true","false","","","","","","","",""
"952","
  <p style=""font-size: 40px;"">brang</p>
  <p style=""font-size: 16px;"">J = YES &nbsp;&nbsp;&nbsp; F = NO</p>
","f","html-keyboard-response","11","2.1.0","41889","J=YES, F=NO","whx3wcp2ys","1","79","83","75","","","","","","lextale","false","false","","","","","","","",""
"774","
  <p style=""font-size: 40px;"">huge</p>
  <p style=""font-size: 16px;"">J = YES &nbsp;&nbsp;&nbsp; F = NO</p>
","j","html-keyboard-response","12","2.1.0","42664","J=YES, F=NO","whx3wcp2ys","1","79","83","75","","","","","","lextale","true","false","","","","","","","",""
"862","
  <p style=""font-size: 40px;"">plove</p>
  <p style=""font-size: 16px;"">J = YES &nbsp;&nbsp;&nbsp; F = NO</p>
","f","html-keyboard-response","13","2.1.0","43526","J=YES, F=NO","whx3wcp2ys","1","79","83","75","","","","","","lextale","false","false","","","","","","","",""
"785","
  <p style=""font-size: 40px;"">border</p>
  <p style=""font-size: 16px;"">J = YES &nbsp;&nbsp;&nbsp; F = NO</p>
","j","html-keyboard-response","14","2.1.0","44311","J=YES, F=NO","whx3wcp2ys","1","79","83","75","","","","","","lextale","true","false","","","","","","","",""
"875","
  <p style=""font-size: 40px;"">flimsy</p>
  <p style=""font-size: 16px;"">J = YES &nbsp;&nbsp;&nbsp; F = NO</p>
","j","html-keyboard-response","15","2.1.0","45186","J=YES, F=NO","whx3wcp2ys","1","79","83","75","","","","","","lextale","true","false","","","","","","","",""
"1097","
  <p style=""font-size: 40px;"">drain</p>
  <p style=""font-size: 16px;"">J = YES &nbsp;&nbsp;&nbsp; F = NO</p>
","j","html-keyboard-response","16","2.1.0","46284","J=YES, F=NO","whx3wcp2ys","1","79","83","75","","","","","","lextale","true","false","","","","","","","",""
"2545","
  <p style=""font-size: 40px;"">twindle</p>
  <p style=""font-size: 16px;"">J = YES &nbsp;&nbsp;&nbsp; F = NO</p>
","j","html-keyboard-response","17","2.1.0","48828","J=YES, F=NO","whx3wcp2ys","1","79","83","75","","","","","","lextale","false","false","","","","","","","",""
"783","
  <p style=""font-size: 40px;"">propose</p>
  <p style=""font-size: 16px;"">J = YES &nbsp;&nbsp;&nbsp; F = NO</p>
","j","html-keyboard-response","18","2.1.0","49613","J=YES, F=NO","whx3wcp2ys","1","79","83","75","","","","","","lextale","true","false","","","","","","","",""
"1087","
  <p style=""font-size: 40px;"">forlay</p>
  <p style=""font-size: 16px;"">J = YES &nbsp;&nbsp;&nbsp; F = NO</p>
","f","html-keyboard-response","19","2.1.0","50700","J=YES, F=NO","whx3wcp2ys","1","79","83","75","","","","","","lextale","false","false","","","","","","","",""
"862","
  <p style=""font-size: 40px;"">tenant</p>
  <p style=""font-size: 16px;"">J = YES &nbsp;&nbsp;&nbsp; F = NO</p>
","j","html-keyboard-response","20","2.1.0","51563","J=YES, F=NO","whx3wcp2ys","1","79","83","75","","","","","","lextale","true","false","","","","","","","",""
"739","
  <p style=""font-size: 40px;"">strain</p>
  <p style=""font-size: 16px;"">J = YES &nbsp;&nbsp;&nbsp; F = NO</p>
","j","html-keyboard-response","21","2.1.0","52303","J=YES, F=NO","whx3wcp2ys","1","79","83","75","","","","","","lextale","true","false","","","","","","","",""
"975","
  <p style=""font-size: 40px;"">holster</p>
  <p style=""font-size: 16px;"">J = YES &nbsp;&nbsp;&nbsp; F = NO</p>
","j","html-keyboard-response","22","2.1.0","53280","J=YES, F=NO","whx3wcp2ys","1","79","83","75","","","","","","lextale","true","false","","","","","","","",""
"829","
  <p style=""font-size: 40px;"">hinder</p>
  <p style=""font-size: 16px;"">J = YES &nbsp;&nbsp;&nbsp; F = NO</p>
","j","html-keyboard-response","23","2.1.0","54108","J=YES, F=NO","whx3wcp2ys","1","79","83","75","","","","","","lextale","true","false","","","","","","","",""
"873","
  <p style=""font-size: 40px;"">swindle</p>
  <p style=""font-size: 16px;"">J = YES &nbsp;&nbsp;&nbsp; F = NO</p>
","j","html-keyboard-response","24","2.1.0","54983","J=YES, F=NO","whx3wcp2ys","1","79","83","75","","","","","","lextale","true","false","","","","","","","",""
"1378","
  <p style=""font-size: 40px;"">nuder</p>
  <p style=""font-size: 16px;"">J = YES &nbsp;&nbsp;&nbsp; F = NO</p>
","f","html-keyboard-response","25","2.1.0","56362","J=YES, F=NO","whx3wcp2ys","1","79","83","75","","","","","","lextale","false","false","","","","","","","",""
"828","
  <p style=""font-size: 40px;"">pillow</p>
  <p style=""font-size: 16px;"">J = YES &nbsp;&nbsp;&nbsp; F = NO</p>
","j","html-keyboard-response","26","2.1.0","57190","J=YES, F=NO","whx3wcp2ys","1","79","83","75","","","","","","lextale","true","false","","","","","","","",""
"1256","
  <p style=""font-size: 40px;"">shumble</p>
  <p style=""font-size: 16px;"">J = YES &nbsp;&nbsp;&nbsp; F = NO</p>
","f","html-keyboard-response","27","2.1.0","58446","J=YES, F=NO","whx3wcp2ys","1","79","83","75","","","","","","lextale","false","false","","","","","","","",""
"661","
  <p style=""font-size: 40px;"">thirst</p>
  <p style=""font-size: 16px;"">J = YES &nbsp;&nbsp;&nbsp; F = NO</p>
","j","html-keyboard-response","28","2.1.0","59107","J=YES, F=NO","whx3wcp2ys","1","79","83","75","","","","","","lextale","true","false","","","","","","","",""
"1949","
  <p style=""font-size: 40px;"">unsail</p>
  <p style=""font-size: 16px;"">J = YES &nbsp;&nbsp;&nbsp; F = NO</p>
","j","html-keyboard-response","29","2.1.0","61058","J=YES, F=NO","whx3wcp2ys","1","79","83","75","","","","","","lextale","false","false","","","","","","","",""
"673","
  <p style=""font-size: 40px;"">rifle</p>
  <p style=""font-size: 16px;"">J = YES &nbsp;&nbsp;&nbsp; F = NO</p>
","j","html-keyboard-response","30","2.1.0","61730","J=YES, F=NO","whx3wcp2ys","1","79","83","75","","","","","","lextale","true","false","","","","","","","",""
"638","
  <p style=""font-size: 40px;"">mush</p>
  <p style=""font-size: 16px;"">J = YES &nbsp;&nbsp;&nbsp; F = NO</p>
","j","html-keyboard-response","31","2.1.0","62369","J=YES, F=NO","whx3wcp2ys","1","79","83","75","","","","","","lextale","false","false","","","","","","","",""
"964","
  <p style=""font-size: 40px;"">drench</p>
  <p style=""font-size: 16px;"">J = YES &nbsp;&nbsp;&nbsp; F = NO</p>
","j","html-keyboard-response","32","2.1.0","63333","J=YES, F=NO","whx3wcp2ys","1","79","83","75","","","","","","lextale","true","false","","","","","","","",""
"1041","
  <p style=""font-size: 40px;"">snirt</p>
  <p style=""font-size: 16px;"">J = YES &nbsp;&nbsp;&nbsp; F = NO</p>
","f","html-keyboard-response","33","2.1.0","64375","J=YES, F=NO","whx3wcp2ys","1","79","83","75","","","","","","lextale","false","false","","","","","","","",""
"739","
  <p style=""font-size: 40px;"">bitter</p>
  <p style=""font-size: 16px;"">J = YES &nbsp;&nbsp;&nbsp; F = NO</p>
","j","html-keyboard-response","34","2.1.0","65115","J=YES, F=NO","whx3wcp2ys","1","79","83","75","","","","","","lextale","true","false","","","","","","","",""
"1019","
  <p style=""font-size: 40px;"">pliff</p>
  <p style=""font-size: 16px;"">J = YES &nbsp;&nbsp;&nbsp; F = NO</p>
","f","html-keyboard-response","35","2.1.0","66134","J=YES, F=NO","whx3wcp2ys","1","79","83","75","","","","","","lextale","false","false","","","","","","","",""
"515","
  <p style=""font-size: 40px;"">tablet</p>
  <p style=""font-size: 16px;"">J = YES &nbsp;&nbsp;&nbsp; F = NO</p>
","j","html-keyboard-response","36","2.1.0","66650","J=YES, F=NO","whx3wcp2ys","1","79","83","75","","","","","","lextale","true","false","","","","","","","",""
"740","
  <p style=""font-size: 40px;"">glimmer</p>
  <p style=""font-size: 16px;"">J = YES &nbsp;&nbsp;&nbsp; F = NO</p>
","j","html-keyboard-response","37","2.1.0","67389","J=YES, F=NO","whx3wcp2ys","1","79","83","75","","","","","","lextale","true","false","","","","","","","",""
"952","
  <p style=""font-size: 40px;"">slink</p>
  <p style=""font-size: 16px;"">J = YES &nbsp;&nbsp;&nbsp; F = NO</p>
","f","html-keyboard-response","38","2.1.0","68341","J=YES, F=NO","whx3wcp2ys","1","79","83","75","","","","","","lextale","true","false","","","","","","","",""
"773","
  <p style=""font-size: 40px;"">clever</p>
  <p style=""font-size: 16px;"">J = YES &nbsp;&nbsp;&nbsp; F = NO</p>
","j","html-keyboard-response","39","2.1.0","69115","J=YES, F=NO","whx3wcp2ys","1","79","83","75","","","","","","lextale","true","false","","","","","","","",""
"1804","
  <p style=""font-size: 40px;"">grum</p>
  <p style=""font-size: 16px;"">J = YES &nbsp;&nbsp;&nbsp; F = NO</p>
","f","html-keyboard-response","40","2.1.0","70919","J=YES, F=NO","whx3wcp2ys","1","79","83","75","","","","","","lextale","false","false","","","","","","","",""
"940","
  <p style=""font-size: 40px;"">string</p>
  <p style=""font-size: 16px;"">J = YES &nbsp;&nbsp;&nbsp; F = NO</p>
","j","html-keyboard-response","41","2.1.0","71860","J=YES, F=NO","whx3wcp2ys","1","79","83","75","","","","","","lextale","true","false","","","","","","","",""
"1536","
  <p style=""font-size: 40px;"">plim</p>
  <p style=""font-size: 16px;"">J = YES &nbsp;&nbsp;&nbsp; F = NO</p>
","f","html-keyboard-response","42","2.1.0","73396","J=YES, F=NO","whx3wcp2ys","1","79","83","75","","","","","","lextale","false","false","","","","","","","",""
"636","
  <p style=""font-size: 40px;"">cable</p>
  <p style=""font-size: 16px;"">J = YES &nbsp;&nbsp;&nbsp; F = NO</p>
","j","html-keyboard-response","43","2.1.0","74034","J=YES, F=NO","whx3wcp2ys","1","79","83","75","","","","","","lextale","true","false","","","","","","","",""
"1399","
  <p style=""font-size: 40px;"">shrivel</p>
  <p style=""font-size: 16px;"">J = YES &nbsp;&nbsp;&nbsp; F = NO</p>
","j","html-keyboard-response","44","2.1.0","75433","J=YES, F=NO","whx3wcp2ys","1","79","83","75","","","","","","lextale","true","false","","","","","","","",""
"1545","
  <p style=""font-size: 40px;"">tarnish</p>
  <p style=""font-size: 16px;"">J = YES &nbsp;&nbsp;&nbsp; F = NO</p>
","j","html-keyboard-response","45","2.1.0","76980","J=YES, F=NO","whx3wcp2ys","1","79","83","75","","","","","","lextale","true","false","","","","","","","",""
"852","
  <p style=""font-size: 40px;"">blim</p>
  <p style=""font-size: 16px;"">J = YES &nbsp;&nbsp;&nbsp; F = NO</p>
","f","html-keyboard-response","46","2.1.0","77832","J=YES, F=NO","whx3wcp2ys","1","79","83","75","","","","","","lextale","false","false","","","","","","","",""
"3586","
  <p style=""font-size: 40px;"">stifle</p>
  <p style=""font-size: 16px;"">J = YES &nbsp;&nbsp;&nbsp; F = NO</p>
","j","html-keyboard-response","47","2.1.0","81418","J=YES, F=NO","whx3wcp2ys","1","79","83","75","","","","","","lextale","true","false","","","","","","","",""
"963","
  <p style=""font-size: 40px;"">bint</p>
  <p style=""font-size: 16px;"">J = YES &nbsp;&nbsp;&nbsp; F = NO</p>
","f","html-keyboard-response","48","2.1.0","82382","J=YES, F=NO","whx3wcp2ys","1","79","83","75","","","","","","lextale","false","false","","","","","","","",""
"874","
  <p style=""font-size: 40px;"">purple</p>
  <p style=""font-size: 16px;"">J = YES &nbsp;&nbsp;&nbsp; F = NO</p>
","j","html-keyboard-response","49","2.1.0","83257","J=YES, F=NO","whx3wcp2ys","1","79","83","75","","","","","","lextale","true","false","","","","","","","",""
"761","
  <p style=""font-size: 40px;"">wriggle</p>
  <p style=""font-size: 16px;"">J = YES &nbsp;&nbsp;&nbsp; F = NO</p>
","j","html-keyboard-response","50","2.1.0","84019","J=YES, F=NO","whx3wcp2ys","1","79","83","75","","","","","","lextale","true","false","","","","","","","",""
"783","
  <p style=""font-size: 40px;"">mangle</p>
  <p style=""font-size: 16px;"">J = YES &nbsp;&nbsp;&nbsp; F = NO</p>
","j","html-keyboard-response","51","2.1.0","84802","J=YES, F=NO","whx3wcp2ys","1","79","83","75","","","","","","lextale","true","false","","","","","","","",""
"884","
  <p style=""font-size: 40px;"">shramp</p>
  <p style=""font-size: 16px;"">J = YES &nbsp;&nbsp;&nbsp; F = NO</p>
","f","html-keyboard-response","52","2.1.0","85687","J=YES, F=NO","whx3wcp2ys","1","79","83","75","","","","","","lextale","false","false","","","","","","","",""
"649","
  <p style=""font-size: 40px;"">flirt</p>
  <p style=""font-size: 16px;"">J = YES &nbsp;&nbsp;&nbsp; F = NO</p>
","j","html-keyboard-response","53","2.1.0","86338","J=YES, F=NO","whx3wcp2ys","1","79","83","75","","","","","","lextale","true","false","","","","","","","",""
"840","
  <p style=""font-size: 40px;"">frip</p>
  <p style=""font-size: 16px;"">J = YES &nbsp;&nbsp;&nbsp; F = NO</p>
","f","html-keyboard-response","54","2.1.0","87178","J=YES, F=NO","whx3wcp2ys","1","79","83","75","","","","","","lextale","false","false","","","","","","","",""
"761","
  <p style=""font-size: 40px;"">tangle</p>
  <p style=""font-size: 16px;"">J = YES &nbsp;&nbsp;&nbsp; F = NO</p>
","j","html-keyboard-response","55","2.1.0","87941","J=YES, F=NO","whx3wcp2ys","1","79","83","75","","","","","","lextale","true","false","","","","","","","",""
"672","
  <p style=""font-size: 40px;"">crumble</p>
  <p style=""font-size: 16px;"">J = YES &nbsp;&nbsp;&nbsp; F = NO</p>
","j","html-keyboard-response","56","2.1.0","88612","J=YES, F=NO","whx3wcp2ys","1","79","83","75","","","","","","lextale","true","false","","","","","","","",""
"627","
  <p style=""font-size: 40px;"">wrinkle</p>
  <p style=""font-size: 16px;"">J = YES &nbsp;&nbsp;&nbsp; F = NO</p>
","j","html-keyboard-response","57","2.1.0","89240","J=YES, F=NO","whx3wcp2ys","1","79","83","75","","","","","","lextale","true","false","","","","","","","",""
"1244","
  <p style=""font-size: 40px;"">slumb</p>
  <p style=""font-size: 16px;"">J = YES &nbsp;&nbsp;&nbsp; F = NO</p>
","j","html-keyboard-response","58","2.1.0","90485","J=YES, F=NO","whx3wcp2ys","1","79","83","75","","","","","","lextale","false","false","","","","","","","",""
"840","
  <p style=""font-size: 40px;"">jungle</p>
  <p style=""font-size: 16px;"">J = YES &nbsp;&nbsp;&nbsp; F = NO</p>
","j","html-keyboard-response","59","2.1.0","91324","J=YES, F=NO","whx3wcp2ys","1","79","83","75","","","","","","lextale","true","false","","","","","","","",""
"885","
  <p style=""font-size: 40px;"">frolick</p>
  <p style=""font-size: 16px;"">J = YES &nbsp;&nbsp;&nbsp; F = NO</p>
","f","html-keyboard-response","60","2.1.0","92209","J=YES, F=NO","whx3wcp2ys","1","79","83","75","","","","","","lextale","false","false","","","","","","","",""
"1871","
      <h2>LexTALE Test Completed</h2>
      <p>Your LexTALE vocabulary score is: <strong>79%</strong></p>
      <p>Press any key to continue.</p>
    ","j","html-keyboard-response","61","2.1.0","94081","J=YES, F=NO","whx3wcp2ys","1","79","83","75","","","","","","","","","","","","","","","",""
"2520","
    <div style=""max-width: 800px; margin: auto; text-align: left;"">
      <h2>Break Time</h2>
      <p>You have completed the first part of the study.</p>
      <p>You may take a short <strong>30-second break</strong> before continuing.</p>
      <p>When you’re ready, press any key to continue to the final task.</p>
    </div>
  ","j","html-keyboard-response","62","2.1.0","96602","J=YES, F=NO","whx3wcp2ys","1","79","83","75","","","","","","","","","","","","","","","",""
"14639","
    <div style=""max-width: 800px; margin: auto; text-align: left;"">
      <h2>Part 2: Lexical Decision Task</h2>
      <p>You will now begin the second part of the study.</p>
      <p>Each trial will follow this sequence:</p>
      <ul>
        <li>A fixation cross (+) appears at the center of the screen.</li>
        <li>You will hear a short beep followed by a spoken word.</li>
        <li>A written word will appear briefly on the screen.</li>
      </ul>
      <p>Your task is to judge whether the <strong>written word</strong> is a real English word.</p>
      <p style=""margin-top: 1em;""><strong>Key responses:</strong></p>
      <ul>
        <li><strong>J</strong> = YES (real English word)</li>
        <li><strong>F</strong> = NO (not a real English word)</li>
      </ul>
      <p>Please respond as quickly and accurately as you can.</p>
      <p style=""margin-top: 2em;"">Press any key to continue.</p>
    </div>
  ","j","html-keyboard-response","63","2.1.0","111241","J=YES, F=NO","whx3wcp2ys","1","79","83","75","","","","","","","","","","","","","","","",""
"6669","
    <div style=""max-width: 800px; margin: auto; text-align: left;"">
      <h2>Before You Begin</h2>
      <p>Make sure your sound is turned on.</p>
      <p>You will hear audio during each trial, but your decision should be based only on the <strong>written word</strong> you see on the screen.</p>
      <p><strong>Reminder:</strong></p>
      <ul>
        <li><strong>J</strong> = YES (real English word)</li>
        <li><strong>F</strong> = NO (not a real English word)</li>
      </ul>
      <p style=""margin-top: 2em;"">Press any key when you are ready to begin.</p>
    </div>
  ","j","html-keyboard-response","64","2.1.0","117911","J=YES, F=NO","whx3wcp2ys","1","79","83","75","","","","","","","","","","","","","","","",""
"2195","
    <div style=""max-width: 800px; margin: auto; text-align: left;"">
      <h2>Part 2: Practice Trials</h2>
      <p>You will now complete a few <strong>practice trials</strong> to get familiar with the task.</p>
      <p>These trials are <strong>not scored</strong> and are only to help you get used to the format.</p>
      <p style=""margin-top: 2em;"">Press any key to begin.</p>
    </div>
  ","j","html-keyboard-response","65","2.1.0","120106","J=YES, F=NO","whx3wcp2ys","1","79","83","75","","","","","","","","","","","","","","","",""
"1547","<p>Starting practice block 1 of 2. Press any key to continue.</p>"," ","html-keyboard-response","66","2.1.0","121653","J=YES, F=NO","whx3wcp2ys","1","79","83","75","","","","","","","","","","","","","","","",""
"null","<p style=""font-size: 50px;"">+</p>","null","html-keyboard-response","67","2.1.0","121955","J=YES, F=NO","whx3wcp2ys","1","79","83","75","","","","","","","","","","","","","","","",""
"null","audio/beep-329314.mp3","null","audio-keyboard-response","68","2.1.0","123463","J=YES, F=NO","whx3wcp2ys","1","79","83","75","","","","","","","","","","","","","","","",""
"null","audio/hotel1.wav","null","audio-keyboard-response","69","2.1.0","124044","J=YES, F=NO","whx3wcp2ys","1","79","83","75","","","","","","","","","","","","","","","",""
"1228","
          <p id=""word"" style=""font-size: 40px;"">flanter</p>
          <p style=""font-size: 16px;"">J = YES &nbsp;&nbsp;&nbsp; F = NO</p>
        ","f","html-keyboard-response","70","2.1.0","125273","J=YES, F=NO","whx3wcp2ys","1","79","83","75","","","","","","","","","flanter","hotel1","pseudoword","pseudoword","f","true","",""
"null","<p style=""font-size: 50px;"">+</p>","null","html-keyboard-response","71","2.1.0","125584","J=YES, F=NO","whx3wcp2ys","1","79","83","75","","","","","","","","","","","","","","","",""
"null","audio/beep-329314.mp3","null","audio-keyboard-response","72","2.1.0","127088","J=YES, F=NO","whx3wcp2ys","1","79","83","75","","","","","","","","","","","","","","","",""
"null","audio/fence.wav","null","audio-keyboard-response","73","2.1.0","130210","J=YES, F=NO","whx3wcp2ys","1","79","83","75","","","","","","","","","","","","","","","",""
"921","
          <p id=""word"" style=""font-size: 40px;"">trim</p>
          <p style=""font-size: 16px;"">J = YES &nbsp;&nbsp;&nbsp; F = NO</p>
        ","j","html-keyboard-response","74","2.1.0","131132","J=YES, F=NO","whx3wcp2ys","1","79","83","75","","","","","","","","","trim","fence","filler","filler","j","true","",""
"null","<p style=""font-size: 50px;"">+</p>","null","html-keyboard-response","75","2.1.0","131433","J=YES, F=NO","whx3wcp2ys","1","79","83","75","","","","","","","","","","","","","","","",""
"null","audio/beep-329314.mp3","null","audio-keyboard-response","76","2.1.0","132938","J=YES, F=NO","whx3wcp2ys","1","79","83","75","","","","","","","","","","","","","","","",""
"null","audio/gossip1.wav","null","audio-keyboard-response","77","2.1.0","133529","J=YES, F=NO","whx3wcp2ys","1","79","83","75","","","","","","","","","","","","","","","",""
"897","
          <p id=""word"" style=""font-size: 40px;"">camerish</p>
          <p style=""font-size: 16px;"">J = YES &nbsp;&nbsp;&nbsp; F = NO</p>
        ","f","html-keyboard-response","78","2.1.0","134426","J=YES, F=NO","whx3wcp2ys","1","79","83","75","","","","","","","","","camerish","gossip1","pseudoword","pseudoword","f","true","",""
"null","<p style=""font-size: 50px;"">+</p>","null","html-keyboard-response","79","2.1.0","134730","J=YES, F=NO","whx3wcp2ys","1","79","83","75","","","","","","","","","","","","","","","",""
"null","audio/beep-329314.mp3","null","audio-keyboard-response","80","2.1.0","136233","J=YES, F=NO","whx3wcp2ys","1","79","83","75","","","","","","","","","","","","","","","",""
"null","audio/bomb1.wav","null","audio-keyboard-response","81","2.1.0","136585","J=YES, F=NO","whx3wcp2ys","1","79","83","75","","","","","","","","","","","","","","","",""
"847","
          <p id=""word"" style=""font-size: 40px;"">clean</p>
          <p style=""font-size: 16px;"">J = YES &nbsp;&nbsp;&nbsp; F = NO</p>
        ","j","html-keyboard-response","82","2.1.0","137431","J=YES, F=NO","whx3wcp2ys","1","79","83","75","","","","","","","","","clean","bomb1","filler","filler","j","true","",""
"null","<p style=""font-size: 50px;"">+</p>","null","html-keyboard-response","83","2.1.0","137737","J=YES, F=NO","whx3wcp2ys","1","79","83","75","","","","","","","","","","","","","","","",""
"null","audio/beep-329314.mp3","null","audio-keyboard-response","84","2.1.0","139237","J=YES, F=NO","whx3wcp2ys","1","79","83","75","","","","","","","","","","","","","","","",""
"null","audio/dome.wav","null","audio-keyboard-response","85","2.1.0","140296","J=YES, F=NO","whx3wcp2ys","1","79","83","75","","","","","","","","","","","","","","","",""
"944","
          <p id=""word"" style=""font-size: 40px;"">scrupliness</p>
          <p style=""font-size: 16px;"">J = YES &nbsp;&nbsp;&nbsp; F = NO</p>
        ","f","html-keyboard-response","86","2.1.0","141241","J=YES, F=NO","whx3wcp2ys","1","79","83","75","","","","","","","","","scrupliness","dome","pseudoword","pseudoword","f","true","",""
"null","<p style=""font-size: 50px;"">+</p>","null","html-keyboard-response","87","2.1.0","141545","J=YES, F=NO","whx3wcp2ys","1","79","83","75","","","","","","","","","","","","","","","",""
"null","audio/beep-329314.mp3","null","audio-keyboard-response","88","2.1.0","143049","J=YES, F=NO","whx3wcp2ys","1","79","83","75","","","","","","","","","","","","","","","",""
"null","audio/account1.wav","null","audio-keyboard-response","89","2.1.0","143689","J=YES, F=NO","whx3wcp2ys","1","79","83","75","","","","","","","","","","","","","","","",""
"780","
          <p id=""word"" style=""font-size: 40px;"">paint</p>
          <p style=""font-size: 16px;"">J = YES &nbsp;&nbsp;&nbsp; F = NO</p>
        ","j","html-keyboard-response","90","2.1.0","144468","J=YES, F=NO","whx3wcp2ys","1","79","83","75","","","","","","","","","paint","account1","filler","filler","j","true","",""
"null","<p style=""font-size: 50px;"">+</p>","null","html-keyboard-response","91","2.1.0","144774","J=YES, F=NO","whx3wcp2ys","1","79","83","75","","","","","","","","","","","","","","","",""
"null","audio/beep-329314.mp3","null","audio-keyboard-response","92","2.1.0","146279","J=YES, F=NO","whx3wcp2ys","1","79","83","75","","","","","","","","","","","","","","","",""
"null","audio/stain.wav","null","audio-keyboard-response","93","2.1.0","147005","J=YES, F=NO","whx3wcp2ys","1","79","83","75","","","","","","","","","","","","","","","",""
"781","
          <p id=""word"" style=""font-size: 40px;"">rumpsied</p>
          <p style=""font-size: 16px;"">J = YES &nbsp;&nbsp;&nbsp; F = NO</p>
        ","f","html-keyboard-response","94","2.1.0","147786","J=YES, F=NO","whx3wcp2ys","1","79","83","75","","","","","","","","","rumpsied","stain","pseudoword","pseudoword","f","true","",""
"null","<p style=""font-size: 50px;"">+</p>","null","html-keyboard-response","95","2.1.0","148095","J=YES, F=NO","whx3wcp2ys","1","79","83","75","","","","","","","","","","","","","","","",""
"null","audio/beep-329314.mp3","null","audio-keyboard-response","96","2.1.0","149600","J=YES, F=NO","whx3wcp2ys","1","79","83","75","","","","","","","","","","","","","","","",""
"null","audio/dollar.wav","null","audio-keyboard-response","97","2.1.0","150058","J=YES, F=NO","whx3wcp2ys","1","79","83","75","","","","","","","","","","","","","","","",""
"754","
          <p id=""word"" style=""font-size: 40px;"">gliptism</p>
          <p style=""font-size: 16px;"">J = YES &nbsp;&nbsp;&nbsp; F = NO</p>
        ","f","html-keyboard-response","98","2.1.0","150813","J=YES, F=NO","whx3wcp2ys","1","79","83","75","","","","","","","","","gliptism","dollar","pseudoword","pseudoword","f","true","",""
"null","<p style=""font-size: 50px;"">+</p>","null","html-keyboard-response","99","2.1.0","151116","J=YES, F=NO","whx3wcp2ys","1","79","83","75","","","","","","","","","","","","","","","",""
"null","audio/beep-329314.mp3","null","audio-keyboard-response","100","2.1.0","152616","J=YES, F=NO","whx3wcp2ys","1","79","83","75","","","","","","","","","","","","","","","",""
"null","audio/plot1.wav","null","audio-keyboard-response","101","2.1.0","153208","J=YES, F=NO","whx3wcp2ys","1","79","83","75","","","","","","","","","","","","","","","",""
"755","
          <p id=""word"" style=""font-size: 40px;"">glenter</p>
          <p style=""font-size: 16px;"">J = YES &nbsp;&nbsp;&nbsp; F = NO</p>
        ","f","html-keyboard-response","102","2.1.0","153963","J=YES, F=NO","whx3wcp2ys","1","79","83","75","","","","","","","","","glenter","plot1","pseudoword","pseudoword","f","true","",""
"null","<p style=""font-size: 50px;"">+</p>","null","html-keyboard-response","103","2.1.0","154272","J=YES, F=NO","whx3wcp2ys","1","79","83","75","","","","","","","","","","","","","","","",""
"null","audio/beep-329314.mp3","null","audio-keyboard-response","104","2.1.0","155777","J=YES, F=NO","whx3wcp2ys","1","79","83","75","","","","","","","","","","","","","","","",""
"null","audio/beach1.wav","null","audio-keyboard-response","105","2.1.0","156433","J=YES, F=NO","whx3wcp2ys","1","79","83","75","","","","","","","","","","","","","","","",""
"622","
          <p id=""word"" style=""font-size: 40px;"">drive</p>
          <p style=""font-size: 16px;"">J = YES &nbsp;&nbsp;&nbsp; F = NO</p>
        ","j","html-keyboard-response","106","2.1.0","157056","J=YES, F=NO","whx3wcp2ys","1","79","83","75","","","","","","","","","drive","beach1","filler","filler","j","true","",""
"null","<p style=""font-size: 50px;"">+</p>","null","html-keyboard-response","107","2.1.0","157371","J=YES, F=NO","whx3wcp2ys","1","79","83","75","","","","","","","","","","","","","","","",""
"null","audio/beep-329314.mp3","null","audio-keyboard-response","108","2.1.0","158871","J=YES, F=NO","whx3wcp2ys","1","79","83","75","","","","","","","","","","","","","","","",""
"null","audio/butter1.wav","null","audio-keyboard-response","109","2.1.0","159361","J=YES, F=NO","whx3wcp2ys","1","79","83","75","","","","","","","","","","","","","","","",""
"632","
          <p id=""word"" style=""font-size: 40px;"">chew</p>
          <p style=""font-size: 16px;"">J = YES &nbsp;&nbsp;&nbsp; F = NO</p>
        ","j","html-keyboard-response","110","2.1.0","159994","J=YES, F=NO","whx3wcp2ys","1","79","83","75","","","","","","","","","chew","butter1","filler","filler","j","true","",""
"null","<p style=""font-size: 50px;"">+</p>","null","html-keyboard-response","111","2.1.0","160298","J=YES, F=NO","whx3wcp2ys","1","79","83","75","","","","","","","","","","","","","","","",""
"null","audio/beep-329314.mp3","null","audio-keyboard-response","112","2.1.0","161798","J=YES, F=NO","whx3wcp2ys","1","79","83","75","","","","","","","","","","","","","","","",""
"null","audio/bush1.wav","null","audio-keyboard-response","113","2.1.0","162391","J=YES, F=NO","whx3wcp2ys","1","79","83","75","","","","","","","","","","","","","","","",""
"831","
          <p id=""word"" style=""font-size: 40px;"">platined</p>
          <p style=""font-size: 16px;"">J = YES &nbsp;&nbsp;&nbsp; F = NO</p>
        ","f","html-keyboard-response","114","2.1.0","163222","J=YES, F=NO","whx3wcp2ys","1","79","83","75","","","","","","","","","platined","bush1","pseudoword","pseudoword","f","true","",""
"1400","<p>Starting practice block 2 of 2. Press any key to continue.</p>"," ","html-keyboard-response","115","2.1.0","164622","J=YES, F=NO","whx3wcp2ys","1","79","83","75","","","","","","","","","","","","","","","",""
"null","<p style=""font-size: 50px;"">+</p>","null","html-keyboard-response","116","2.1.0","164927","J=YES, F=NO","whx3wcp2ys","1","79","83","75","","","","","","","","","","","","","","","",""
"null","audio/beep-329314.mp3","null","audio-keyboard-response","117","2.1.0","166431","J=YES, F=NO","whx3wcp2ys","1","79","83","75","","","","","","","","","","","","","","","",""
"null","audio/camera1.wav","null","audio-keyboard-response","118","2.1.0","166972","J=YES, F=NO","whx3wcp2ys","1","79","83","75","","","","","","","","","","","","","","","",""
"542","
          <p id=""word"" style=""font-size: 40px;"">stir</p>
          <p style=""font-size: 16px;"">J = YES &nbsp;&nbsp;&nbsp; F = NO</p>
        ","j","html-keyboard-response","119","2.1.0","167515","J=YES, F=NO","whx3wcp2ys","1","79","83","75","","","","","","","","","stir","camera1","filler","filler","j","true","",""
"null","<p style=""font-size: 50px;"">+</p>","null","html-keyboard-response","120","2.1.0","167816","J=YES, F=NO","whx3wcp2ys","1","79","83","75","","","","","","","","","","","","","","","",""
"null","audio/beep-329314.mp3","null","audio-keyboard-response","121","2.1.0","169315","J=YES, F=NO","whx3wcp2ys","1","79","83","75","","","","","","","","","","","","","","","",""
"null","audio/bottle.wav","null","audio-keyboard-response","122","2.1.0","169809","J=YES, F=NO","whx3wcp2ys","1","79","83","75","","","","","","","","","","","","","","","",""
"564","
          <p id=""word"" style=""font-size: 40px;"">watch</p>
          <p style=""font-size: 16px;"">J = YES &nbsp;&nbsp;&nbsp; F = NO</p>
        ","j","html-keyboard-response","123","2.1.0","170374","J=YES, F=NO","whx3wcp2ys","1","79","83","75","","","","","","","","","watch","bottle","filler","filler","j","true","",""
"null","<p style=""font-size: 50px;"">+</p>","null","html-keyboard-response","124","2.1.0","170689","J=YES, F=NO","whx3wcp2ys","1","79","83","75","","","","","","","","","","","","","","","",""
"null","audio/beep-329314.mp3","null","audio-keyboard-response","125","2.1.0","172189","J=YES, F=NO","whx3wcp2ys","1","79","83","75","","","","","","","","","","","","","","","",""
"null","audio/truth1.wav","null","audio-keyboard-response","126","2.1.0","172798","J=YES, F=NO","whx3wcp2ys","1","79","83","75","","","","","","","","","","","","","","","",""
"645","
          <p id=""word"" style=""font-size: 40px;"">calitom</p>
          <p style=""font-size: 16px;"">J = YES &nbsp;&nbsp;&nbsp; F = NO</p>
        ","f","html-keyboard-response","127","2.1.0","173445","J=YES, F=NO","whx3wcp2ys","1","79","83","75","","","","","","","","","calitom","truth1","pseudoword","pseudoword","f","true","",""
"null","<p style=""font-size: 50px;"">+</p>","null","html-keyboard-response","128","2.1.0","173749","J=YES, F=NO","whx3wcp2ys","1","79","83","75","","","","","","","","","","","","","","","",""
"null","audio/beep-329314.mp3","null","audio-keyboard-response","129","2.1.0","175249","J=YES, F=NO","whx3wcp2ys","1","79","83","75","","","","","","","","","","","","","","","",""
"null","audio/kettle1.wav","null","audio-keyboard-response","130","2.1.0","175755","J=YES, F=NO","whx3wcp2ys","1","79","83","75","","","","","","","","","","","","","","","",""
"515","
          <p id=""word"" style=""font-size: 40px;"">wrap</p>
          <p style=""font-size: 16px;"">J = YES &nbsp;&nbsp;&nbsp; F = NO</p>
        ","j","html-keyboard-response","131","2.1.0","176269","J=YES, F=NO","whx3wcp2ys","1","79","83","75","","","","","","","","","wrap","kettle1","filler","filler","j","true","",""
"null","<p style=""font-size: 50px;"">+</p>","null","html-keyboard-response","132","2.1.0","176578","J=YES, F=NO","whx3wcp2ys","1","79","83","75","","","","","","","","","","","","","","","",""
"null","audio/beep-329314.mp3","null","audio-keyboard-response","133","2.1.0","178079","J=YES, F=NO","whx3wcp2ys","1","79","83","75","","","","","","","","","","","","","","","",""
"null","audio/novel.wav","null","audio-keyboard-response","134","2.1.0","178538","J=YES, F=NO","whx3wcp2ys","1","79","83","75","","","","","","","","","","","","","","","",""
"523","
          <p id=""word"" style=""font-size: 40px;"">type</p>
          <p style=""font-size: 16px;"">J = YES &nbsp;&nbsp;&nbsp; F = NO</p>
        ","j","html-keyboard-response","135","2.1.0","179062","J=YES, F=NO","whx3wcp2ys","1","79","83","75","","","","","","","","","type","novel","filler","filler","j","true","",""
"null","<p style=""font-size: 50px;"">+</p>","null","html-keyboard-response","136","2.1.0","179377","J=YES, F=NO","whx3wcp2ys","1","79","83","75","","","","","","","","","","","","","","","",""
"null","audio/beep-329314.mp3","null","audio-keyboard-response","137","2.1.0","180877","J=YES, F=NO","whx3wcp2ys","1","79","83","75","","","","","","","","","","","","","","","",""
"null","audio/alarm1.wav","null","audio-keyboard-response","138","2.1.0","181417","J=YES, F=NO","whx3wcp2ys","1","79","83","75","","","","","","","","","","","","","","","",""
"1141","
          <p id=""word"" style=""font-size: 40px;"">lock</p>
          <p style=""font-size: 16px;"">J = YES &nbsp;&nbsp;&nbsp; F = NO</p>
        ","j","html-keyboard-response","139","2.1.0","182560","J=YES, F=NO","whx3wcp2ys","1","79","83","75","","","","","","","","","lock","alarm1","filler","filler","j","true","",""
"null","<p style=""font-size: 50px;"">+</p>","null","html-keyboard-response","140","2.1.0","182862","J=YES, F=NO","whx3wcp2ys","1","79","83","75","","","","","","","","","","","","","","","",""
"null","audio/beep-329314.mp3","null","audio-keyboard-response","141","2.1.0","184367","J=YES, F=NO","whx3wcp2ys","1","79","83","75","","","","","","","","","","","","","","","",""
"null","audio/cloud1.wav","null","audio-keyboard-response","142","2.1.0","185161","J=YES, F=NO","whx3wcp2ys","1","79","83","75","","","","","","","","","","","","","","","",""
"749","
          <p id=""word"" style=""font-size: 40px;"">brotant</p>
          <p style=""font-size: 16px;"">J = YES &nbsp;&nbsp;&nbsp; F = NO</p>
        ","f","html-keyboard-response","143","2.1.0","185911","J=YES, F=NO","whx3wcp2ys","1","79","83","75","","","","","","","","","brotant","cloud1","pseudoword","pseudoword","f","true","",""
"null","<p style=""font-size: 50px;"">+</p>","null","html-keyboard-response","144","2.1.0","186214","J=YES, F=NO","whx3wcp2ys","1","79","83","75","","","","","","","","","","","","","","","",""
"null","audio/beep-329314.mp3","null","audio-keyboard-response","145","2.1.0","187718","J=YES, F=NO","whx3wcp2ys","1","79","83","75","","","","","","","","","","","","","","","",""
"null","audio/golf1.wav","null","audio-keyboard-response","146","2.1.0","188237","J=YES, F=NO","whx3wcp2ys","1","79","83","75","","","","","","","","","","","","","","","",""
"732","
          <p id=""word"" style=""font-size: 40px;"">drabble</p>
          <p style=""font-size: 16px;"">J = YES &nbsp;&nbsp;&nbsp; F = NO</p>
        ","f","html-keyboard-response","147","2.1.0","188970","J=YES, F=NO","whx3wcp2ys","1","79","83","75","","","","","","","","","drabble","golf1","pseudoword","pseudoword","f","true","",""
"null","<p style=""font-size: 50px;"">+</p>","null","html-keyboard-response","148","2.1.0","189279","J=YES, F=NO","whx3wcp2ys","1","79","83","75","","","","","","","","","","","","","","","",""
"null","audio/beep-329314.mp3","null","audio-keyboard-response","149","2.1.0","190782","J=YES, F=NO","whx3wcp2ys","1","79","83","75","","","","","","","","","","","","","","","",""
"null","audio/bridge.wav","null","audio-keyboard-response","150","2.1.0","191282","J=YES, F=NO","whx3wcp2ys","1","79","83","75","","","","","","","","","","","","","","","",""
"525","
          <p id=""word"" style=""font-size: 40px;"">crack</p>
          <p style=""font-size: 16px;"">J = YES &nbsp;&nbsp;&nbsp; F = NO</p>
        ","j","html-keyboard-response","151","2.1.0","191807","J=YES, F=NO","whx3wcp2ys","1","79","83","75","","","","","","","","","crack","bridge","filler","filler","j","true","",""
"null","<p style=""font-size: 50px;"">+</p>","null","html-keyboard-response","152","2.1.0","192121","J=YES, F=NO","whx3wcp2ys","1","79","83","75","","","","","","","","","","","","","","","",""
"null","audio/beep-329314.mp3","null","audio-keyboard-response","153","2.1.0","193621","J=YES, F=NO","whx3wcp2ys","1","79","83","75","","","","","","","","","","","","","","","",""
"null","audio/mile1.wav","null","audio-keyboard-response","154","2.1.0","194146","J=YES, F=NO","whx3wcp2ys","1","79","83","75","","","","","","","","","","","","","","","",""
"710","
          <p id=""word"" style=""font-size: 40px;"">writch</p>
          <p style=""font-size: 16px;"">J = YES &nbsp;&nbsp;&nbsp; F = NO</p>
        ","f","html-keyboard-response","155","2.1.0","194856","J=YES, F=NO","whx3wcp2ys","1","79","83","75","","","","","","","","","writch","mile1","pseudoword","pseudoword","f","true","",""
"null","<p style=""font-size: 50px;"">+</p>","null","html-keyboard-response","156","2.1.0","195165","J=YES, F=NO","whx3wcp2ys","1","79","83","75","","","","","","","","","","","","","","","",""
"null","audio/beep-329314.mp3","null","audio-keyboard-response","157","2.1.0","196666","J=YES, F=NO","whx3wcp2ys","1","79","83","75","","","","","","","","","","","","","","","",""
"null","audio/weight1.wav","null","audio-keyboard-response","158","2.1.0","197156","J=YES, F=NO","whx3wcp2ys","1","79","83","75","","","","","","","","","","","","","","","",""
"581","
          <p id=""word"" style=""font-size: 40px;"">crimsh</p>
          <p style=""font-size: 16px;"">J = YES &nbsp;&nbsp;&nbsp; F = NO</p>
        ","f","html-keyboard-response","159","2.1.0","197738","J=YES, F=NO","whx3wcp2ys","1","79","83","75","","","","","","","","","crimsh","weight1","pseudoword","pseudoword","f","true","",""
"null","<p style=""font-size: 50px;"">+</p>","null","html-keyboard-response","160","2.1.0","198051","J=YES, F=NO","whx3wcp2ys","1","79","83","75","","","","","","","","","","","","","","","",""
"null","audio/beep-329314.mp3","null","audio-keyboard-response","161","2.1.0","199552","J=YES, F=NO","whx3wcp2ys","1","79","83","75","","","","","","","","","","","","","","","",""
"null","audio/terrain.wav","null","audio-keyboard-response","162","2.1.0","200185","J=YES, F=NO","whx3wcp2ys","1","79","83","75","","","","","","","","","","","","","","","",""
"713","
          <p id=""word"" style=""font-size: 40px;"">twist</p>
          <p style=""font-size: 16px;"">J = YES &nbsp;&nbsp;&nbsp; F = NO</p>
        ","j","html-keyboard-response","163","2.1.0","200898","J=YES, F=NO","whx3wcp2ys","1","79","83","75","","","","","","","","","twist","terrain","filler","filler","j","true","",""
"2735","
    <div style=""max-width: 800px; margin: auto; text-align: left;"">
      <h2>Part 2: Main Trials</h2>
      <p>Great job on the practice trials!</p>
      <p>You will now begin the <strong>main set of trials</strong>.</p>
      <p>Remember your key assignments:</p>
      <ul>
        <li><strong>J</strong> = YES (real English word)</li>
        <li><strong>F</strong> = NO (not a real English word)</li>
      </ul>
      <p>Try to respond as <strong>quickly and accurately</strong> as possible.</p>
      <p style=""margin-top: 2em;"">Press any key to begin the main trials.</p>
    </div>
  "," ","html-keyboard-response","164","2.1.0","203633","J=YES, F=NO","whx3wcp2ys","1","79","83","75","","","","","","","","","","","","","","","",""
"2532","<p>Starting main block 1 of 8. Press any key to continue.</p>"," ","html-keyboard-response","165","2.1.0","206165","J=YES, F=NO","whx3wcp2ys","1","79","83","75","","","","","","","","","","","","","","","",""
"null","<p style=""font-size: 50px;"">+</p>","null","html-keyboard-response","166","2.1.0","206475","J=YES, F=NO","whx3wcp2ys","1","79","83","75","","","","","","","","","","","","","","","",""
"null","audio/beep-329314.mp3","null","audio-keyboard-response","167","2.1.0","207980","J=YES, F=NO","whx3wcp2ys","1","79","83","75","","","","","","","","","","","","","","","",""
"null","audio/bomb1.wav","null","audio-keyboard-response","168","2.1.0","208331","J=YES, F=NO","whx3wcp2ys","1","79","83","75","","","","","","","","","","","","","","","",""
"580","
          <p id=""word"" style=""font-size: 40px;"">drop</p>
          <p style=""font-size: 16px;"">J = YES &nbsp;&nbsp;&nbsp; F = NO</p>
        ","j","html-keyboard-response","169","2.1.0","208912","J=YES, F=NO","whx3wcp2ys","1","79","83","75","","","","","","","","","drop","bomb1","literal","experimental","j","true","",""
"null","<p style=""font-size: 50px;"">+</p>","null","html-keyboard-response","170","2.1.0","209221","J=YES, F=NO","whx3wcp2ys","1","79","83","75","","","","","","","","","","","","","","","",""
"null","audio/beep-329314.mp3","null","audio-keyboard-response","171","2.1.0","210720","J=YES, F=NO","whx3wcp2ys","1","79","83","75","","","","","","","","","","","","","","","",""
"null","audio/window1.wav","null","audio-keyboard-response","172","2.1.0","211289","J=YES, F=NO","whx3wcp2ys","1","79","83","75","","","","","","","","","","","","","","","",""
"568","
          <p id=""word"" style=""font-size: 40px;"">toss</p>
          <p style=""font-size: 16px;"">J = YES &nbsp;&nbsp;&nbsp; F = NO</p>
        ","j","html-keyboard-response","173","2.1.0","211858","J=YES, F=NO","whx3wcp2ys","1","79","83","75","","","","","","","","","toss","window1","filler","filler","j","true","",""
"null","<p style=""font-size: 50px;"">+</p>","null","html-keyboard-response","174","2.1.0","212168","J=YES, F=NO","whx3wcp2ys","1","79","83","75","","","","","","","","","","","","","","","",""
"null","audio/beep-329314.mp3","null","audio-keyboard-response","175","2.1.0","213668","J=YES, F=NO","whx3wcp2ys","1","79","83","75","","","","","","","","","","","","","","","",""
"null","audio/tax1.wav","null","audio-keyboard-response","176","2.1.0","214238","J=YES, F=NO","whx3wcp2ys","1","79","83","75","","","","","","","","","","","","","","","",""
"578","
          <p id=""word"" style=""font-size: 40px;"">snate</p>
          <p style=""font-size: 16px;"">J = YES &nbsp;&nbsp;&nbsp; F = NO</p>
        ","f","html-keyboard-response","177","2.1.0","214817","J=YES, F=NO","whx3wcp2ys","1","79","83","75","","","","","","","","","snate","tax1","pseudoword","pseudoword","f","true","",""
"null","<p style=""font-size: 50px;"">+</p>","null","html-keyboard-response","178","2.1.0","215124","J=YES, F=NO","whx3wcp2ys","1","79","83","75","","","","","","","","","","","","","","","",""
"null","audio/beep-329314.mp3","null","audio-keyboard-response","179","2.1.0","216625","J=YES, F=NO","whx3wcp2ys","1","79","83","75","","","","","","","","","","","","","","","",""
"null","audio/planet1.wav","null","audio-keyboard-response","180","2.1.0","217184","J=YES, F=NO","whx3wcp2ys","1","79","83","75","","","","","","","","","","","","","","","",""
"658","
          <p id=""word"" style=""font-size: 40px;"">cratched</p>
          <p style=""font-size: 16px;"">J = YES &nbsp;&nbsp;&nbsp; F = NO</p>
        ","f","html-keyboard-response","181","2.1.0","217844","J=YES, F=NO","whx3wcp2ys","1","79","83","75","","","","","","","","","cratched","planet1","pseudoword","pseudoword","f","true","",""
"null","<p style=""font-size: 50px;"">+</p>","null","html-keyboard-response","182","2.1.0","218157","J=YES, F=NO","whx3wcp2ys","1","79","83","75","","","","","","","","","","","","","","","",""
"null","audio/beep-329314.mp3","null","audio-keyboard-response","183","2.1.0","219662","J=YES, F=NO","whx3wcp2ys","1","79","83","75","","","","","","","","","","","","","","","",""
"null","audio/alarm1.wav","null","audio-keyboard-response","184","2.1.0","220201","J=YES, F=NO","whx3wcp2ys","1","79","83","75","","","","","","","","","","","","","","","",""
"589","
          <p id=""word"" style=""font-size: 40px;"">swetp</p>
          <p style=""font-size: 16px;"">J = YES &nbsp;&nbsp;&nbsp; F = NO</p>
        ","f","html-keyboard-response","185","2.1.0","220790","J=YES, F=NO","whx3wcp2ys","1","79","83","75","","","","","","","","","swetp","alarm1","pseudoword","pseudoword","f","true","",""
"null","<p style=""font-size: 50px;"">+</p>","null","html-keyboard-response","186","2.1.0","221104","J=YES, F=NO","whx3wcp2ys","1","79","83","75","","","","","","","","","","","","","","","",""
"null","audio/beep-329314.mp3","null","audio-keyboard-response","187","2.1.0","222604","J=YES, F=NO","whx3wcp2ys","1","79","83","75","","","","","","","","","","","","","","","",""
"null","audio/test1.wav","null","audio-keyboard-response","188","2.1.0","223134","J=YES, F=NO","whx3wcp2ys","1","79","83","75","","","","","","","","","","","","","","","",""
"660","
          <p id=""word"" style=""font-size: 40px;"">twopch</p>
          <p style=""font-size: 16px;"">J = YES &nbsp;&nbsp;&nbsp; F = NO</p>
        ","f","html-keyboard-response","189","2.1.0","223794","J=YES, F=NO","whx3wcp2ys","1","79","83","75","","","","","","","","","twopch","test1","pseudoword","pseudoword","f","true","",""
"null","<p style=""font-size: 50px;"">+</p>","null","html-keyboard-response","190","2.1.0","224099","J=YES, F=NO","whx3wcp2ys","1","79","83","75","","","","","","","","","","","","","","","",""
"null","audio/beep-329314.mp3","null","audio-keyboard-response","191","2.1.0","225599","J=YES, F=NO","whx3wcp2ys","1","79","83","75","","","","","","","","","","","","","","","",""
"null","audio/ego.wav","null","audio-keyboard-response","192","2.1.0","226109","J=YES, F=NO","whx3wcp2ys","1","79","83","75","","","","","","","","","","","","","","","",""
"530","
          <p id=""word"" style=""font-size: 40px;"">feed</p>
          <p style=""font-size: 16px;"">J = YES &nbsp;&nbsp;&nbsp; F = NO</p>
        ","j","html-keyboard-response","193","2.1.0","226639","J=YES, F=NO","whx3wcp2ys","1","79","83","75","","","","","","","","","feed","ego","metaphor","experimental","j","true","",""
"null","<p style=""font-size: 50px;"">+</p>","null","html-keyboard-response","194","2.1.0","226941","J=YES, F=NO","whx3wcp2ys","1","79","83","75","","","","","","","","","","","","","","","",""
"null","audio/beep-329314.mp3","null","audio-keyboard-response","195","2.1.0","228441","J=YES, F=NO","whx3wcp2ys","1","79","83","75","","","","","","","","","","","","","","","",""
"null","audio/fox.wav","null","audio-keyboard-response","196","2.1.0","229191","J=YES, F=NO","whx3wcp2ys","1","79","83","75","","","","","","","","","","","","","","","",""
"564","
          <p id=""word"" style=""font-size: 40px;"">conquer</p>
          <p style=""font-size: 16px;"">J = YES &nbsp;&nbsp;&nbsp; F = NO</p>
        ","j","html-keyboard-response","197","2.1.0","229755","J=YES, F=NO","whx3wcp2ys","1","79","83","75","","","","","","","","","conquer","fox","unrelated","experimental","j","true","",""
"null","<p style=""font-size: 50px;"">+</p>","null","html-keyboard-response","198","2.1.0","230058","J=YES, F=NO","whx3wcp2ys","1","79","83","75","","","","","","","","","","","","","","","",""
"null","audio/beep-329314.mp3","null","audio-keyboard-response","199","2.1.0","231562","J=YES, F=NO","whx3wcp2ys","1","79","83","75","","","","","","","","","","","","","","","",""
"null","audio/age1.wav","null","audio-keyboard-response","200","2.1.0","232072","J=YES, F=NO","whx3wcp2ys","1","79","83","75","","","","","","","","","","","","","","","",""
"652","
          <p id=""word"" style=""font-size: 40px;"">lachry</p>
          <p style=""font-size: 16px;"">J = YES &nbsp;&nbsp;&nbsp; F = NO</p>
        ","f","html-keyboard-response","201","2.1.0","232725","J=YES, F=NO","whx3wcp2ys","1","79","83","75","","","","","","","","","lachry","age1","pseudoword","pseudoword","f","true","",""
"null","<p style=""font-size: 50px;"">+</p>","null","html-keyboard-response","202","2.1.0","233034","J=YES, F=NO","whx3wcp2ys","1","79","83","75","","","","","","","","","","","","","","","",""
"null","audio/beep-329314.mp3","null","audio-keyboard-response","203","2.1.0","234534","J=YES, F=NO","whx3wcp2ys","1","79","83","75","","","","","","","","","","","","","","","",""
"null","audio/ship.wav","null","audio-keyboard-response","204","2.1.0","235034","J=YES, F=NO","whx3wcp2ys","1","79","83","75","","","","","","","","","","","","","","","",""
"525","
          <p id=""word"" style=""font-size: 40px;"">scrap</p>
          <p style=""font-size: 16px;"">J = YES &nbsp;&nbsp;&nbsp; F = NO</p>
        ","j","html-keyboard-response","205","2.1.0","235560","J=YES, F=NO","whx3wcp2ys","1","79","83","75","","","","","","","","","scrap","ship","literal","experimental","j","true","",""
"null","<p style=""font-size: 50px;"">+</p>","null","html-keyboard-response","206","2.1.0","235867","J=YES, F=NO","whx3wcp2ys","1","79","83","75","","","","","","","","","","","","","","","",""
"null","audio/beep-329314.mp3","null","audio-keyboard-response","207","2.1.0","237366","J=YES, F=NO","whx3wcp2ys","1","79","83","75","","","","","","","","","","","","","","","",""
"null","audio/haste1.wav","null","audio-keyboard-response","208","2.1.0","237886","J=YES, F=NO","whx3wcp2ys","1","79","83","75","","","","","","","","","","","","","","","",""
"520","
          <p id=""word"" style=""font-size: 40px;"">hide</p>
          <p style=""font-size: 16px;"">J = YES &nbsp;&nbsp;&nbsp; F = NO</p>
        ","j","html-keyboard-response","209","2.1.0","238406","J=YES, F=NO","whx3wcp2ys","1","79","83","75","","","","","","","","","hide","haste1","unrelated","experimental","j","true","",""
"null","<p style=""font-size: 50px;"">+</p>","null","html-keyboard-response","210","2.1.0","238709","J=YES, F=NO","whx3wcp2ys","1","79","83","75","","","","","","","","","","","","","","","",""
"null","audio/beep-329314.mp3","null","audio-keyboard-response","211","2.1.0","240209","J=YES, F=NO","whx3wcp2ys","1","79","83","75","","","","","","","","","","","","","","","",""
"null","audio/van1.wav","null","audio-keyboard-response","212","2.1.0","240657","J=YES, F=NO","whx3wcp2ys","1","79","83","75","","","","","","","","","","","","","","","",""
"617","
          <p id=""word"" style=""font-size: 40px;"">push</p>
          <p style=""font-size: 16px;"">J = YES &nbsp;&nbsp;&nbsp; F = NO</p>
        ","j","html-keyboard-response","213","2.1.0","241274","J=YES, F=NO","whx3wcp2ys","1","79","83","75","","","","","","","","","push","van1","filler","filler","j","true","",""
"null","<p style=""font-size: 50px;"">+</p>","null","html-keyboard-response","214","2.1.0","241580","J=YES, F=NO","whx3wcp2ys","1","79","83","75","","","","","","","","","","","","","","","",""
"null","audio/beep-329314.mp3","null","audio-keyboard-response","215","2.1.0","243081","J=YES, F=NO","whx3wcp2ys","1","79","83","75","","","","","","","","","","","","","","","",""
"null","audio/foe1.wav","null","audio-keyboard-response","216","2.1.0","243550","J=YES, F=NO","whx3wcp2ys","1","79","83","75","","","","","","","","","","","","","","","",""
"581","
          <p id=""word"" style=""font-size: 40px;"">creth</p>
          <p style=""font-size: 16px;"">J = YES &nbsp;&nbsp;&nbsp; F = NO</p>
        ","f","html-keyboard-response","217","2.1.0","244132","J=YES, F=NO","whx3wcp2ys","1","79","83","75","","","","","","","","","creth","foe1","pseudoword","pseudoword","f","true","",""
"null","<p style=""font-size: 50px;"">+</p>","null","html-keyboard-response","218","2.1.0","244437","J=YES, F=NO","whx3wcp2ys","1","79","83","75","","","","","","","","","","","","","","","",""
"null","audio/beep-329314.mp3","null","audio-keyboard-response","219","2.1.0","245938","J=YES, F=NO","whx3wcp2ys","1","79","83","75","","","","","","","","","","","","","","","",""
"null","audio/novel.wav","null","audio-keyboard-response","220","2.1.0","246396","J=YES, F=NO","whx3wcp2ys","1","79","83","75","","","","","","","","","","","","","","","",""
"558","
          <p id=""word"" style=""font-size: 40px;"">devour</p>
          <p style=""font-size: 16px;"">J = YES &nbsp;&nbsp;&nbsp; F = NO</p>
        ","j","html-keyboard-response","221","2.1.0","246955","J=YES, F=NO","whx3wcp2ys","1","79","83","75","","","","","","","","","devour","novel","metaphor","experimental","j","true","",""
"null","<p style=""font-size: 50px;"">+</p>","null","html-keyboard-response","222","2.1.0","247263","J=YES, F=NO","whx3wcp2ys","1","79","83","75","","","","","","","","","","","","","","","",""
"null","audio/beep-329314.mp3","null","audio-keyboard-response","223","2.1.0","248763","J=YES, F=NO","whx3wcp2ys","1","79","83","75","","","","","","","","","","","","","","","",""
"null","audio/mouth1.wav","null","audio-keyboard-response","224","2.1.0","249293","J=YES, F=NO","whx3wcp2ys","1","79","83","75","","","","","","","","","","","","","","","",""
"654","
          <p id=""word"" style=""font-size: 40px;"">spolial</p>
          <p style=""font-size: 16px;"">J = YES &nbsp;&nbsp;&nbsp; F = NO</p>
        ","f","html-keyboard-response","225","2.1.0","249948","J=YES, F=NO","whx3wcp2ys","1","79","83","75","","","","","","","","","spolial","mouth1","pseudoword","pseudoword","f","true","",""
"null","<p style=""font-size: 50px;"">+</p>","null","html-keyboard-response","226","2.1.0","250251","J=YES, F=NO","whx3wcp2ys","1","79","83","75","","","","","","","","","","","","","","","",""
"null","audio/beep-329314.mp3","null","audio-keyboard-response","227","2.1.0","251751","J=YES, F=NO","whx3wcp2ys","1","79","83","75","","","","","","","","","","","","","","","",""
"null","audio/card1.wav","null","audio-keyboard-response","228","2.1.0","252250","J=YES, F=NO","whx3wcp2ys","1","79","83","75","","","","","","","","","","","","","","","",""
"688","
          <p id=""word"" style=""font-size: 40px;"">land</p>
          <p style=""font-size: 16px;"">J = YES &nbsp;&nbsp;&nbsp; F = NO</p>
        ","j","html-keyboard-response","229","2.1.0","252939","J=YES, F=NO","whx3wcp2ys","1","79","83","75","","","","","","","","","land","card1","unrelated","experimental","j","true","",""
"1882","<p>Excellent! You have finished block 1 of 8.</p>
                     <p>Feel free to take a 30 second break.</p>
                     <p>Press any key when you're ready to continue.</p>"," ","html-keyboard-response","230","2.1.0","254821","J=YES, F=NO","whx3wcp2ys","1","79","83","75","","","","","","","","","","","","","","","",""
"1557","<p>Starting main block 2 of 8. Press any key to continue.</p>"," ","html-keyboard-response","231","2.1.0","256377","J=YES, F=NO","whx3wcp2ys","1","79","83","75","","","","","","","","","","","","","","","",""
"null","<p style=""font-size: 50px;"">+</p>","null","html-keyboard-response","232","2.1.0","256679","J=YES, F=NO","whx3wcp2ys","1","79","83","75","","","","","","","","","","","","","","","",""
"null","audio/beep-329314.mp3","null","audio-keyboard-response","233","2.1.0","258184","J=YES, F=NO","whx3wcp2ys","1","79","83","75","","","","","","","","","","","","","","","",""
"null","audio/pine.wav","null","audio-keyboard-response","234","2.1.0","258644","J=YES, F=NO","whx3wcp2ys","1","79","83","75","","","","","","","","","","","","","","","",""
"569","
          <p id=""word"" style=""font-size: 40px;"">crebble</p>
          <p style=""font-size: 16px;"">J = YES &nbsp;&nbsp;&nbsp; F = NO</p>
        ","f","html-keyboard-response","235","2.1.0","259212","J=YES, F=NO","whx3wcp2ys","1","79","83","75","","","","","","","","","crebble","pine","pseudoword","pseudoword","f","true","",""
"null","<p style=""font-size: 50px;"">+</p>","null","html-keyboard-response","236","2.1.0","259516","J=YES, F=NO","whx3wcp2ys","1","79","83","75","","","","","","","","","","","","","","","",""
"null","audio/beep-329314.mp3","null","audio-keyboard-response","237","2.1.0","261015","J=YES, F=NO","whx3wcp2ys","1","79","83","75","","","","","","","","","","","","","","","",""
"null","audio/news.wav","null","audio-keyboard-response","238","2.1.0","261625","J=YES, F=NO","whx3wcp2ys","1","79","83","75","","","","","","","","","","","","","","","",""
"545","
          <p id=""word"" style=""font-size: 40px;"">digest</p>
          <p style=""font-size: 16px;"">J = YES &nbsp;&nbsp;&nbsp; F = NO</p>
        ","j","html-keyboard-response","239","2.1.0","262170","J=YES, F=NO","whx3wcp2ys","1","79","83","75","","","","","","","","","digest","news","metaphor","experimental","j","true","",""
"null","<p style=""font-size: 50px;"">+</p>","null","html-keyboard-response","240","2.1.0","262471","J=YES, F=NO","whx3wcp2ys","1","79","83","75","","","","","","","","","","","","","","","",""
"null","audio/beep-329314.mp3","null","audio-keyboard-response","241","2.1.0","263971","J=YES, F=NO","whx3wcp2ys","1","79","83","75","","","","","","","","","","","","","","","",""
"null","audio/baby.wav","null","audio-keyboard-response","242","2.1.0","264390","J=YES, F=NO","whx3wcp2ys","1","79","83","75","","","","","","","","","","","","","","","",""
"536","
          <p id=""word"" style=""font-size: 40px;"">lift</p>
          <p style=""font-size: 16px;"">J = YES &nbsp;&nbsp;&nbsp; F = NO</p>
        ","j","html-keyboard-response","243","2.1.0","264927","J=YES, F=NO","whx3wcp2ys","1","79","83","75","","","","","","","","","lift","baby","filler","filler","j","true","",""
"null","<p style=""font-size: 50px;"">+</p>","null","html-keyboard-response","244","2.1.0","265242","J=YES, F=NO","whx3wcp2ys","1","79","83","75","","","","","","","","","","","","","","","",""
"null","audio/beep-329314.mp3","null","audio-keyboard-response","245","2.1.0","266741","J=YES, F=NO","whx3wcp2ys","1","79","83","75","","","","","","","","","","","","","","","",""
"null","audio/cinema1.wav","null","audio-keyboard-response","246","2.1.0","267310","J=YES, F=NO","whx3wcp2ys","1","79","83","75","","","","","","","","","","","","","","","",""
"438","
          <p id=""word"" style=""font-size: 40px;"">grow</p>
          <p style=""font-size: 16px;"">J = YES &nbsp;&nbsp;&nbsp; F = NO</p>
        ","j","html-keyboard-response","247","2.1.0","267750","J=YES, F=NO","whx3wcp2ys","1","79","83","75","","","","","","","","","grow","cinema1","unrelated","experimental","j","true","",""
"null","<p style=""font-size: 50px;"">+</p>","null","html-keyboard-response","248","2.1.0","268050","J=YES, F=NO","whx3wcp2ys","1","79","83","75","","","","","","","","","","","","","","","",""
"null","audio/beep-329314.mp3","null","audio-keyboard-response","249","2.1.0","269550","J=YES, F=NO","whx3wcp2ys","1","79","83","75","","","","","","","","","","","","","","","",""
"null","audio/age1.wav","null","audio-keyboard-response","250","2.1.0","270060","J=YES, F=NO","whx3wcp2ys","1","79","83","75","","","","","","","","","","","","","","","",""
"557","
          <p id=""word"" style=""font-size: 40px;"">seize</p>
          <p style=""font-size: 16px;"">J = YES &nbsp;&nbsp;&nbsp; F = NO</p>
        ","j","html-keyboard-response","251","2.1.0","270617","J=YES, F=NO","whx3wcp2ys","1","79","83","75","","","","","","","","","seize","age1","unrelated","experimental","j","true","",""
"null","<p style=""font-size: 50px;"">+</p>","null","html-keyboard-response","252","2.1.0","270924","J=YES, F=NO","whx3wcp2ys","1","79","83","75","","","","","","","","","","","","","","","",""
"null","audio/beep-329314.mp3","null","audio-keyboard-response","253","2.1.0","272424","J=YES, F=NO","whx3wcp2ys","1","79","83","75","","","","","","","","","","","","","","","",""
"null","audio/effort.wav","null","audio-keyboard-response","254","2.1.0","272974","J=YES, F=NO","whx3wcp2ys","1","79","83","75","","","","","","","","","","","","","","","",""
"510","
          <p id=""word"" style=""font-size: 40px;"">whonk</p>
          <p style=""font-size: 16px;"">J = YES &nbsp;&nbsp;&nbsp; F = NO</p>
        ","f","html-keyboard-response","255","2.1.0","273484","J=YES, F=NO","whx3wcp2ys","1","79","83","75","","","","","","","","","whonk","effort","pseudoword","pseudoword","f","true","",""
"null","<p style=""font-size: 50px;"">+</p>","null","html-keyboard-response","256","2.1.0","273790","J=YES, F=NO","whx3wcp2ys","1","79","83","75","","","","","","","","","","","","","","","",""
"null","audio/beep-329314.mp3","null","audio-keyboard-response","257","2.1.0","275291","J=YES, F=NO","whx3wcp2ys","1","79","83","75","","","","","","","","","","","","","","","",""
"null","audio/survey1.wav","null","audio-keyboard-response","258","2.1.0","275980","J=YES, F=NO","whx3wcp2ys","1","79","83","75","","","","","","","","","","","","","","","",""
"484","
          <p id=""word"" style=""font-size: 40px;"">release</p>
          <p style=""font-size: 16px;"">J = YES &nbsp;&nbsp;&nbsp; F = NO</p>
        ","j","html-keyboard-response","259","2.1.0","276465","J=YES, F=NO","whx3wcp2ys","1","79","83","75","","","","","","","","","release","survey1","metaphor","experimental","j","true","",""
"null","<p style=""font-size: 50px;"">+</p>","null","html-keyboard-response","260","2.1.0","276771","J=YES, F=NO","whx3wcp2ys","1","79","83","75","","","","","","","","","","","","","","","",""
"null","audio/beep-329314.mp3","null","audio-keyboard-response","261","2.1.0","278270","J=YES, F=NO","whx3wcp2ys","1","79","83","75","","","","","","","","","","","","","","","",""
"null","audio/purpose.wav","null","audio-keyboard-response","262","2.1.0","278900","J=YES, F=NO","whx3wcp2ys","1","79","83","75","","","","","","","","","","","","","","","",""
"655","
          <p id=""word"" style=""font-size: 40px;"">whigm</p>
          <p style=""font-size: 16px;"">J = YES &nbsp;&nbsp;&nbsp; F = NO</p>
        ","f","html-keyboard-response","263","2.1.0","279557","J=YES, F=NO","whx3wcp2ys","1","79","83","75","","","","","","","","","whigm","purpose","pseudoword","pseudoword","f","true","",""
"null","<p style=""font-size: 50px;"">+</p>","null","html-keyboard-response","264","2.1.0","279865","J=YES, F=NO","whx3wcp2ys","1","79","83","75","","","","","","","","","","","","","","","",""
"null","audio/beep-329314.mp3","null","audio-keyboard-response","265","2.1.0","281368","J=YES, F=NO","whx3wcp2ys","1","79","83","75","","","","","","","","","","","","","","","",""
"null","audio/breath.wav","null","audio-keyboard-response","266","2.1.0","281888","J=YES, F=NO","whx3wcp2ys","1","79","83","75","","","","","","","","","","","","","","","",""
"615","
          <p id=""word"" style=""font-size: 40px;"">twets</p>
          <p style=""font-size: 16px;"">J = YES &nbsp;&nbsp;&nbsp; F = NO</p>
        ","f","html-keyboard-response","267","2.1.0","282503","J=YES, F=NO","whx3wcp2ys","1","79","83","75","","","","","","","","","twets","breath","pseudoword","pseudoword","f","true","",""
"null","<p style=""font-size: 50px;"">+</p>","null","html-keyboard-response","268","2.1.0","282817","J=YES, F=NO","whx3wcp2ys","1","79","83","75","","","","","","","","","","","","","","","",""
"null","audio/beep-329314.mp3","null","audio-keyboard-response","269","2.1.0","284317","J=YES, F=NO","whx3wcp2ys","1","79","83","75","","","","","","","","","","","","","","","",""
"null","audio/topic.wav","null","audio-keyboard-response","270","2.1.0","284857","J=YES, F=NO","whx3wcp2ys","1","79","83","75","","","","","","","","","","","","","","","",""
"559","
          <p id=""word"" style=""font-size: 40px;"">infortuitist</p>
          <p style=""font-size: 16px;"">J = YES &nbsp;&nbsp;&nbsp; F = NO</p>
        ","f","html-keyboard-response","271","2.1.0","285416","J=YES, F=NO","whx3wcp2ys","1","79","83","75","","","","","","","","","infortuitist","topic","pseudoword","pseudoword","f","true","",""
"null","<p style=""font-size: 50px;"">+</p>","null","html-keyboard-response","272","2.1.0","285729","J=YES, F=NO","whx3wcp2ys","1","79","83","75","","","","","","","","","","","","","","","",""
"null","audio/beep-329314.mp3","null","audio-keyboard-response","273","2.1.0","287228","J=YES, F=NO","whx3wcp2ys","1","79","83","75","","","","","","","","","","","","","","","",""
"null","audio/desire.wav","null","audio-keyboard-response","274","2.1.0","287807","J=YES, F=NO","whx3wcp2ys","1","79","83","75","","","","","","","","","","","","","","","",""
"556","
          <p id=""word"" style=""font-size: 40px;"">nophed</p>
          <p style=""font-size: 16px;"">J = YES &nbsp;&nbsp;&nbsp; F = NO</p>
        ","f","html-keyboard-response","275","2.1.0","288365","J=YES, F=NO","whx3wcp2ys","1","79","83","75","","","","","","","","","nophed","desire","pseudoword","pseudoword","f","true","",""
"null","<p style=""font-size: 50px;"">+</p>","null","html-keyboard-response","276","2.1.0","288672","J=YES, F=NO","whx3wcp2ys","1","79","83","75","","","","","","","","","","","","","","","",""
"null","audio/beep-329314.mp3","null","audio-keyboard-response","277","2.1.0","290171","J=YES, F=NO","whx3wcp2ys","1","79","83","75","","","","","","","","","","","","","","","",""
"null","audio/fortune1.wav","null","audio-keyboard-response","278","2.1.0","290900","J=YES, F=NO","whx3wcp2ys","1","79","83","75","","","","","","","","","","","","","","","",""
"511","
          <p id=""word"" style=""font-size: 40px;"">spend</p>
          <p style=""font-size: 16px;"">J = YES &nbsp;&nbsp;&nbsp; F = NO</p>
        ","j","html-keyboard-response","279","2.1.0","291412","J=YES, F=NO","whx3wcp2ys","1","79","83","75","","","","","","","","","spend","fortune1","literal","experimental","j","true","",""
"null","<p style=""font-size: 50px;"">+</p>","null","html-keyboard-response","280","2.1.0","291713","J=YES, F=NO","whx3wcp2ys","1","79","83","75","","","","","","","","","","","","","","","",""
"null","audio/beep-329314.mp3","null","audio-keyboard-response","281","2.1.0","293218","J=YES, F=NO","whx3wcp2ys","1","79","83","75","","","","","","","","","","","","","","","",""
"null","audio/burden.wav","null","audio-keyboard-response","282","2.1.0","293689","J=YES, F=NO","whx3wcp2ys","1","79","83","75","","","","","","","","","","","","","","","",""
"513","
          <p id=""word"" style=""font-size: 40px;"">whotth</p>
          <p style=""font-size: 16px;"">J = YES &nbsp;&nbsp;&nbsp; F = NO</p>
        ","f","html-keyboard-response","283","2.1.0","294202","J=YES, F=NO","whx3wcp2ys","1","79","83","75","","","","","","","","","whotth","burden","pseudoword","pseudoword","f","true","",""
"null","<p style=""font-size: 50px;"">+</p>","null","html-keyboard-response","284","2.1.0","294517","J=YES, F=NO","whx3wcp2ys","1","79","83","75","","","","","","","","","","","","","","","",""
"null","audio/beep-329314.mp3","null","audio-keyboard-response","285","2.1.0","296017","J=YES, F=NO","whx3wcp2ys","1","79","83","75","","","","","","","","","","","","","","","",""
"null","audio/garden1.wav","null","audio-keyboard-response","286","2.1.0","296505","J=YES, F=NO","whx3wcp2ys","1","79","83","75","","","","","","","","","","","","","","","",""
"531","
          <p id=""word"" style=""font-size: 40px;"">invest</p>
          <p style=""font-size: 16px;"">J = YES &nbsp;&nbsp;&nbsp; F = NO</p>
        ","j","html-keyboard-response","287","2.1.0","297036","J=YES, F=NO","whx3wcp2ys","1","79","83","75","","","","","","","","","invest","garden1","unrelated","experimental","j","true","",""
"null","<p style=""font-size: 50px;"">+</p>","null","html-keyboard-response","288","2.1.0","297339","J=YES, F=NO","whx3wcp2ys","1","79","83","75","","","","","","","","","","","","","","","",""
"null","audio/beep-329314.mp3","null","audio-keyboard-response","289","2.1.0","298839","J=YES, F=NO","whx3wcp2ys","1","79","83","75","","","","","","","","","","","","","","","",""
"null","audio/noise1.wav","null","audio-keyboard-response","290","2.1.0","299409","J=YES, F=NO","whx3wcp2ys","1","79","83","75","","","","","","","","","","","","","","","",""
"541","
          <p id=""word"" style=""font-size: 40px;"">slintered</p>
          <p style=""font-size: 16px;"">J = YES &nbsp;&nbsp;&nbsp; F = NO</p>
        ","f","html-keyboard-response","291","2.1.0","299950","J=YES, F=NO","whx3wcp2ys","1","79","83","75","","","","","","","","","slintered","noise1","pseudoword","pseudoword","f","true","",""
"null","<p style=""font-size: 50px;"">+</p>","null","html-keyboard-response","292","2.1.0","300257","J=YES, F=NO","whx3wcp2ys","1","79","83","75","","","","","","","","","","","","","","","",""
"null","audio/beep-329314.mp3","null","audio-keyboard-response","293","2.1.0","301756","J=YES, F=NO","whx3wcp2ys","1","79","83","75","","","","","","","","","","","","","","","",""
"null","audio/enemy1.wav","null","audio-keyboard-response","294","2.1.0","302196","J=YES, F=NO","whx3wcp2ys","1","79","83","75","","","","","","","","","","","","","","","",""
"589","
          <p id=""word"" style=""font-size: 40px;"">defeat</p>
          <p style=""font-size: 16px;"">J = YES &nbsp;&nbsp;&nbsp; F = NO</p>
        ","j","html-keyboard-response","295","2.1.0","302786","J=YES, F=NO","whx3wcp2ys","1","79","83","75","","","","","","","","","defeat","enemy1","literal","experimental","j","true","",""
"4179","<p>Excellent! You have finished block 2 of 8.</p>
                     <p>Feel free to take a 30 second break.</p>
                     <p>Press any key when you're ready to continue.</p>","j","html-keyboard-response","296","2.1.0","306965","J=YES, F=NO","whx3wcp2ys","1","79","83","75","","","","","","","","","","","","","","","",""
"695","<p>Starting main block 3 of 8. Press any key to continue.</p>","j","html-keyboard-response","297","2.1.0","307661","J=YES, F=NO","whx3wcp2ys","1","79","83","75","","","","","","","","","","","","","","","",""
"null","<p style=""font-size: 50px;"">+</p>","null","html-keyboard-response","298","2.1.0","307962","J=YES, F=NO","whx3wcp2ys","1","79","83","75","","","","","","","","","","","","","","","",""
"null","audio/beep-329314.mp3","null","audio-keyboard-response","299","2.1.0","309468","J=YES, F=NO","whx3wcp2ys","1","79","83","75","","","","","","","","","","","","","","","",""
"null","audio/client1.wav","null","audio-keyboard-response","300","2.1.0","310109","J=YES, F=NO","whx3wcp2ys","1","79","83","75","","","","","","","","","","","","","","","",""
"530","
          <p id=""word"" style=""font-size: 40px;"">droothe</p>
          <p style=""font-size: 16px;"">J = YES &nbsp;&nbsp;&nbsp; F = NO</p>
        ","f","html-keyboard-response","301","2.1.0","310639","J=YES, F=NO","whx3wcp2ys","1","79","83","75","","","","","","","","","droothe","client1","pseudoword","pseudoword","f","true","",""
"null","<p style=""font-size: 50px;"">+</p>","null","html-keyboard-response","302","2.1.0","310942","J=YES, F=NO","whx3wcp2ys","1","79","83","75","","","","","","","","","","","","","","","",""
"null","audio/beep-329314.mp3","null","audio-keyboard-response","303","2.1.0","312443","J=YES, F=NO","whx3wcp2ys","1","79","83","75","","","","","","","","","","","","","","","",""
"null","audio/bishop1.wav","null","audio-keyboard-response","304","2.1.0","312992","J=YES, F=NO","whx3wcp2ys","1","79","83","75","","","","","","","","","","","","","","","",""
"403","
          <p id=""word"" style=""font-size: 40px;"">play</p>
          <p style=""font-size: 16px;"">J = YES &nbsp;&nbsp;&nbsp; F = NO</p>
        ","j","html-keyboard-response","305","2.1.0","313395","J=YES, F=NO","whx3wcp2ys","1","79","83","75","","","","","","","","","play","bishop1","filler","filler","j","true","",""
"null","<p style=""font-size: 50px;"">+</p>","null","html-keyboard-response","306","2.1.0","313701","J=YES, F=NO","whx3wcp2ys","1","79","83","75","","","","","","","","","","","","","","","",""
"null","audio/beep-329314.mp3","null","audio-keyboard-response","307","2.1.0","315200","J=YES, F=NO","whx3wcp2ys","1","79","83","75","","","","","","","","","","","","","","","",""
"null","audio/brain.wav","null","audio-keyboard-response","308","2.1.0","315639","J=YES, F=NO","whx3wcp2ys","1","79","83","75","","","","","","","","","","","","","","","",""
"512","
          <p id=""word"" style=""font-size: 40px;"">throw</p>
          <p style=""font-size: 16px;"">J = YES &nbsp;&nbsp;&nbsp; F = NO</p>
        ","j","html-keyboard-response","309","2.1.0","316152","J=YES, F=NO","whx3wcp2ys","1","79","83","75","","","","","","","","","throw","brain","filler","filler","j","true","",""
"null","<p style=""font-size: 50px;"">+</p>","null","html-keyboard-response","310","2.1.0","316456","J=YES, F=NO","whx3wcp2ys","1","79","83","75","","","","","","","","","","","","","","","",""
"null","audio/beep-329314.mp3","null","audio-keyboard-response","311","2.1.0","317956","J=YES, F=NO","whx3wcp2ys","1","79","83","75","","","","","","","","","","","","","","","",""
"null","audio/prisoner.wav","null","audio-keyboard-response","312","2.1.0","318425","J=YES, F=NO","whx3wcp2ys","1","79","83","75","","","","","","","","","","","","","","","",""
"684","
          <p id=""word"" style=""font-size: 40px;"">egotian</p>
          <p style=""font-size: 16px;"">J = YES &nbsp;&nbsp;&nbsp; F = NO</p>
        ","f","html-keyboard-response","313","2.1.0","319111","J=YES, F=NO","whx3wcp2ys","1","79","83","75","","","","","","","","","egotian","prisoner","pseudoword","pseudoword","f","true","",""
"null","<p style=""font-size: 50px;"">+</p>","null","html-keyboard-response","314","2.1.0","319412","J=YES, F=NO","whx3wcp2ys","1","79","83","75","","","","","","","","","","","","","","","",""
"null","audio/beep-329314.mp3","null","audio-keyboard-response","315","2.1.0","320911","J=YES, F=NO","whx3wcp2ys","1","79","83","75","","","","","","","","","","","","","","","",""
"null","audio/sand.wav","null","audio-keyboard-response","316","2.1.0","321521","J=YES, F=NO","whx3wcp2ys","1","79","83","75","","","","","","","","","","","","","","","",""
"658","
          <p id=""word"" style=""font-size: 40px;"">proted</p>
          <p style=""font-size: 16px;"">J = YES &nbsp;&nbsp;&nbsp; F = NO</p>
        ","f","html-keyboard-response","317","2.1.0","322179","J=YES, F=NO","whx3wcp2ys","1","79","83","75","","","","","","","","","proted","sand","pseudoword","pseudoword","f","true","",""
"null","<p style=""font-size: 50px;"">+</p>","null","html-keyboard-response","318","2.1.0","322493","J=YES, F=NO","whx3wcp2ys","1","79","83","75","","","","","","","","","","","","","","","",""
"null","audio/beep-329314.mp3","null","audio-keyboard-response","319","2.1.0","323998","J=YES, F=NO","whx3wcp2ys","1","79","83","75","","","","","","","","","","","","","","","",""
"null","audio/holiday1.wav","null","audio-keyboard-response","320","2.1.0","324587","J=YES, F=NO","whx3wcp2ys","1","79","83","75","","","","","","","","","","","","","","","",""
"606","
          <p id=""word"" style=""font-size: 40px;"">drivets</p>
          <p style=""font-size: 16px;"">J = YES &nbsp;&nbsp;&nbsp; F = NO</p>
        ","f","html-keyboard-response","321","2.1.0","325194","J=YES, F=NO","whx3wcp2ys","1","79","83","75","","","","","","","","","drivets","holiday1","pseudoword","pseudoword","f","true","",""
"null","<p style=""font-size: 50px;"">+</p>","null","html-keyboard-response","322","2.1.0","325500","J=YES, F=NO","whx3wcp2ys","1","79","83","75","","","","","","","","","","","","","","","",""
"null","audio/beep-329314.mp3","null","audio-keyboard-response","323","2.1.0","327000","J=YES, F=NO","whx3wcp2ys","1","79","83","75","","","","","","","","","","","","","","","",""
"null","audio/ankle1.wav","null","audio-keyboard-response","324","2.1.0","327489","J=YES, F=NO","whx3wcp2ys","1","79","83","75","","","","","","","","","","","","","","","",""
"606","
          <p id=""word"" style=""font-size: 40px;"">switm</p>
          <p style=""font-size: 16px;"">J = YES &nbsp;&nbsp;&nbsp; F = NO</p>
        ","f","html-keyboard-response","325","2.1.0","328095","J=YES, F=NO","whx3wcp2ys","1","79","83","75","","","","","","","","","switm","ankle1","pseudoword","pseudoword","f","true","",""
"null","<p style=""font-size: 50px;"">+</p>","null","html-keyboard-response","326","2.1.0","328434","J=YES, F=NO","whx3wcp2ys","1","79","83","75","","","","","","","","","","","","","","","",""
"null","audio/beep-329314.mp3","null","audio-keyboard-response","327","2.1.0","329933","J=YES, F=NO","whx3wcp2ys","1","79","83","75","","","","","","","","","","","","","","","",""
"null","audio/meal.wav","null","audio-keyboard-response","328","2.1.0","330344","J=YES, F=NO","whx3wcp2ys","1","79","83","75","","","","","","","","","","","","","","","",""
"597","
          <p id=""word"" style=""font-size: 40px;"">gallite</p>
          <p style=""font-size: 16px;"">J = YES &nbsp;&nbsp;&nbsp; F = NO</p>
        ","f","html-keyboard-response","329","2.1.0","330941","J=YES, F=NO","whx3wcp2ys","1","79","83","75","","","","","","","","","gallite","meal","pseudoword","pseudoword","f","true","",""
"null","<p style=""font-size: 50px;"">+</p>","null","html-keyboard-response","330","2.1.0","331255","J=YES, F=NO","whx3wcp2ys","1","79","83","75","","","","","","","","","","","","","","","",""
"null","audio/beep-329314.mp3","null","audio-keyboard-response","331","2.1.0","332755","J=YES, F=NO","whx3wcp2ys","1","79","83","75","","","","","","","","","","","","","","","",""
"null","audio/ego.wav","null","audio-keyboard-response","332","2.1.0","333265","J=YES, F=NO","whx3wcp2ys","1","79","83","75","","","","","","","","","","","","","","","",""
"589","
          <p id=""word"" style=""font-size: 40px;"">bruite</p>
          <p style=""font-size: 16px;"">J = YES &nbsp;&nbsp;&nbsp; F = NO</p>
        ","f","html-keyboard-response","333","2.1.0","333854","J=YES, F=NO","whx3wcp2ys","1","79","83","75","","","","","","","","","bruite","ego","pseudoword","pseudoword","f","true","",""
"null","<p style=""font-size: 50px;"">+</p>","null","html-keyboard-response","334","2.1.0","334157","J=YES, F=NO","whx3wcp2ys","1","79","83","75","","","","","","","","","","","","","","","",""
"null","audio/beep-329314.mp3","null","audio-keyboard-response","335","2.1.0","335657","J=YES, F=NO","whx3wcp2ys","1","79","83","75","","","","","","","","","","","","","","","",""
"null","audio/show.wav","null","audio-keyboard-response","336","2.1.0","336157","J=YES, F=NO","whx3wcp2ys","1","79","83","75","","","","","","","","","","","","","","","",""
"934","
          <p id=""word"" style=""font-size: 40px;"">smark</p>
          <p style=""font-size: 16px;"">J = YES &nbsp;&nbsp;&nbsp; F = NO</p>
        ","j","html-keyboard-response","337","2.1.0","337091","J=YES, F=NO","whx3wcp2ys","1","79","83","75","","","","","","","","","smark","show","pseudoword","pseudoword","f","false","",""
"null","<p style=""font-size: 50px;"">+</p>","null","html-keyboard-response","338","2.1.0","337403","J=YES, F=NO","whx3wcp2ys","1","79","83","75","","","","","","","","","","","","","","","",""
"null","audio/beep-329314.mp3","null","audio-keyboard-response","339","2.1.0","338908","J=YES, F=NO","whx3wcp2ys","1","79","83","75","","","","","","","","","","","","","","","",""
"null","audio/key1.wav","null","audio-keyboard-response","340","2.1.0","339248","J=YES, F=NO","whx3wcp2ys","1","79","83","75","","","","","","","","","","","","","","","",""
"599","
          <p id=""word"" style=""font-size: 40px;"">sminsh</p>
          <p style=""font-size: 16px;"">J = YES &nbsp;&nbsp;&nbsp; F = NO</p>
        ","f","html-keyboard-response","341","2.1.0","339847","J=YES, F=NO","whx3wcp2ys","1","79","83","75","","","","","","","","","sminsh","key1","pseudoword","pseudoword","f","true","",""
"null","<p style=""font-size: 50px;"">+</p>","null","html-keyboard-response","342","2.1.0","340157","J=YES, F=NO","whx3wcp2ys","1","79","83","75","","","","","","","","","","","","","","","",""
"null","audio/beep-329314.mp3","null","audio-keyboard-response","343","2.1.0","341657","J=YES, F=NO","whx3wcp2ys","1","79","83","75","","","","","","","","","","","","","","","",""
"null","audio/golf1.wav","null","audio-keyboard-response","344","2.1.0","342176","J=YES, F=NO","whx3wcp2ys","1","79","83","75","","","","","","","","","","","","","","","",""
"529","
          <p id=""word"" style=""font-size: 40px;"">bury</p>
          <p style=""font-size: 16px;"">J = YES &nbsp;&nbsp;&nbsp; F = NO</p>
        ","j","html-keyboard-response","345","2.1.0","342705","J=YES, F=NO","whx3wcp2ys","1","79","83","75","","","","","","","","","bury","golf1","unrelated","experimental","j","true","",""
"null","<p style=""font-size: 50px;"">+</p>","null","html-keyboard-response","346","2.1.0","343012","J=YES, F=NO","whx3wcp2ys","1","79","83","75","","","","","","","","","","","","","","","",""
"null","audio/beep-329314.mp3","null","audio-keyboard-response","347","2.1.0","344511","J=YES, F=NO","whx3wcp2ys","1","79","83","75","","","","","","","","","","","","","","","",""
"null","audio/age1.wav","null","audio-keyboard-response","348","2.1.0","345020","J=YES, F=NO","whx3wcp2ys","1","79","83","75","","","","","","","","","","","","","","","",""
"541","
          <p id=""word"" style=""font-size: 40px;"">bake</p>
          <p style=""font-size: 16px;"">J = YES &nbsp;&nbsp;&nbsp; F = NO</p>
        ","j","html-keyboard-response","349","2.1.0","345562","J=YES, F=NO","whx3wcp2ys","1","79","83","75","","","","","","","","","bake","age1","filler","filler","j","true","",""
"null","<p style=""font-size: 50px;"">+</p>","null","html-keyboard-response","350","2.1.0","345869","J=YES, F=NO","whx3wcp2ys","1","79","83","75","","","","","","","","","","","","","","","",""
"null","audio/beep-329314.mp3","null","audio-keyboard-response","351","2.1.0","347369","J=YES, F=NO","whx3wcp2ys","1","79","83","75","","","","","","","","","","","","","","","",""
"null","audio/devil1.wav","null","audio-keyboard-response","352","2.1.0","347749","J=YES, F=NO","whx3wcp2ys","1","79","83","75","","","","","","","","","","","","","","","",""
"523","
          <p id=""word"" style=""font-size: 40px;"">carry</p>
          <p style=""font-size: 16px;"">J = YES &nbsp;&nbsp;&nbsp; F = NO</p>
        ","j","html-keyboard-response","353","2.1.0","348273","J=YES, F=NO","whx3wcp2ys","1","79","83","75","","","","","","","","","carry","devil1","unrelated","experimental","j","true","",""
"null","<p style=""font-size: 50px;"">+</p>","null","html-keyboard-response","354","2.1.0","348576","J=YES, F=NO","whx3wcp2ys","1","79","83","75","","","","","","","","","","","","","","","",""
"null","audio/beep-329314.mp3","null","audio-keyboard-response","355","2.1.0","350076","J=YES, F=NO","whx3wcp2ys","1","79","83","75","","","","","","","","","","","","","","","",""
"null","audio/test1.wav","null","audio-keyboard-response","356","2.1.0","350607","J=YES, F=NO","whx3wcp2ys","1","79","83","75","","","","","","","","","","","","","","","",""
"535","
          <p id=""word"" style=""font-size: 40px;"">run</p>
          <p style=""font-size: 16px;"">J = YES &nbsp;&nbsp;&nbsp; F = NO</p>
        ","j","html-keyboard-response","357","2.1.0","351142","J=YES, F=NO","whx3wcp2ys","1","79","83","75","","","","","","","","","run","test1","metaphor","experimental","j","true","",""
"null","<p style=""font-size: 50px;"">+</p>","null","html-keyboard-response","358","2.1.0","351456","J=YES, F=NO","whx3wcp2ys","1","79","83","75","","","","","","","","","","","","","","","",""
"null","audio/beep-329314.mp3","null","audio-keyboard-response","359","2.1.0","352957","J=YES, F=NO","whx3wcp2ys","1","79","83","75","","","","","","","","","","","","","","","",""
"null","audio/arm.wav","null","audio-keyboard-response","360","2.1.0","353456","J=YES, F=NO","whx3wcp2ys","1","79","83","75","","","","","","","","","","","","","","","",""
"530","
          <p id=""word"" style=""font-size: 40px;"">fold</p>
          <p style=""font-size: 16px;"">J = YES &nbsp;&nbsp;&nbsp; F = NO</p>
        ","j","html-keyboard-response","361","2.1.0","353987","J=YES, F=NO","whx3wcp2ys","1","79","83","75","","","","","","","","","fold","arm","filler","filler","j","true","",""
"1568","<p>Excellent! You have finished block 3 of 8.</p>
                     <p>Feel free to take a 30 second break.</p>
                     <p>Press any key when you're ready to continue.</p>"," ","html-keyboard-response","362","2.1.0","355557","J=YES, F=NO","whx3wcp2ys","1","79","83","75","","","","","","","","","","","","","","","",""
"5030","<p>Starting main block 4 of 8. Press any key to continue.</p>"," ","html-keyboard-response","363","2.1.0","360588","J=YES, F=NO","whx3wcp2ys","1","79","83","75","","","","","","","","","","","","","","","",""
"null","<p style=""font-size: 50px;"">+</p>","null","html-keyboard-response","364","2.1.0","360899","J=YES, F=NO","whx3wcp2ys","1","79","83","75","","","","","","","","","","","","","","","",""
"null","audio/beep-329314.mp3","null","audio-keyboard-response","365","2.1.0","362404","J=YES, F=NO","whx3wcp2ys","1","79","83","75","","","","","","","","","","","","","","","",""
"null","audio/tomato.wav","null","audio-keyboard-response","366","2.1.0","363038","J=YES, F=NO","whx3wcp2ys","1","79","83","75","","","","","","","","","","","","","","","",""
"573","
          <p id=""word"" style=""font-size: 40px;"">gladies</p>
          <p style=""font-size: 16px;"">J = YES &nbsp;&nbsp;&nbsp; F = NO</p>
        ","j","html-keyboard-response","367","2.1.0","363612","J=YES, F=NO","whx3wcp2ys","1","79","83","75","","","","","","","","","gladies","tomato","pseudoword","pseudoword","f","false","",""
"null","<p style=""font-size: 50px;"">+</p>","null","html-keyboard-response","368","2.1.0","363914","J=YES, F=NO","whx3wcp2ys","1","79","83","75","","","","","","","","","","","","","","","",""
"null","audio/beep-329314.mp3","null","audio-keyboard-response","369","2.1.0","365414","J=YES, F=NO","whx3wcp2ys","1","79","83","75","","","","","","","","","","","","","","","",""
"null","audio/strength.wav","null","audio-keyboard-response","370","2.1.0","366114","J=YES, F=NO","whx3wcp2ys","1","79","83","75","","","","","","","","","","","","","","","",""
"636","
          <p id=""word"" style=""font-size: 40px;"">plabet</p>
          <p style=""font-size: 16px;"">J = YES &nbsp;&nbsp;&nbsp; F = NO</p>
        ","f","html-keyboard-response","371","2.1.0","366749","J=YES, F=NO","whx3wcp2ys","1","79","83","75","","","","","","","","","plabet","strength","pseudoword","pseudoword","f","true","",""
"null","<p style=""font-size: 50px;"">+</p>","null","html-keyboard-response","372","2.1.0","367055","J=YES, F=NO","whx3wcp2ys","1","79","83","75","","","","","","","","","","","","","","","",""
"null","audio/beep-329314.mp3","null","audio-keyboard-response","373","2.1.0","368559","J=YES, F=NO","whx3wcp2ys","1","79","83","75","","","","","","","","","","","","","","","",""
"null","audio/account1.wav","null","audio-keyboard-response","374","2.1.0","369200","J=YES, F=NO","whx3wcp2ys","1","79","83","75","","","","","","","","","","","","","","","",""
"528","
          <p id=""word"" style=""font-size: 40px;"">open</p>
          <p style=""font-size: 16px;"">J = YES &nbsp;&nbsp;&nbsp; F = NO</p>
        ","j","html-keyboard-response","375","2.1.0","369729","J=YES, F=NO","whx3wcp2ys","1","79","83","75","","","","","","","","","open","account1","metaphor","experimental","j","true","",""
"null","<p style=""font-size: 50px;"">+</p>","null","html-keyboard-response","376","2.1.0","370036","J=YES, F=NO","whx3wcp2ys","1","79","83","75","","","","","","","","","","","","","","","",""
"null","audio/beep-329314.mp3","null","audio-keyboard-response","377","2.1.0","371537","J=YES, F=NO","whx3wcp2ys","1","79","83","75","","","","","","","","","","","","","","","",""
"null","audio/haste1.wav","null","audio-keyboard-response","378","2.1.0","372055","J=YES, F=NO","whx3wcp2ys","1","79","83","75","","","","","","","","","","","","","","","",""
"698","
          <p id=""word"" style=""font-size: 40px;"">coraconate</p>
          <p style=""font-size: 16px;"">J = YES &nbsp;&nbsp;&nbsp; F = NO</p>
        ","f","html-keyboard-response","379","2.1.0","372754","J=YES, F=NO","whx3wcp2ys","1","79","83","75","","","","","","","","","coraconate","haste1","pseudoword","pseudoword","f","true","",""
"null","<p style=""font-size: 50px;"">+</p>","null","html-keyboard-response","380","2.1.0","373064","J=YES, F=NO","whx3wcp2ys","1","79","83","75","","","","","","","","","","","","","","","",""
"null","audio/beep-329314.mp3","null","audio-keyboard-response","381","2.1.0","374568","J=YES, F=NO","whx3wcp2ys","1","79","83","75","","","","","","","","","","","","","","","",""
"null","audio/menu.wav","null","audio-keyboard-response","382","2.1.0","375097","J=YES, F=NO","whx3wcp2ys","1","79","83","75","","","","","","","","","","","","","","","",""
"571","
          <p id=""word"" style=""font-size: 40px;"">navigate</p>
          <p style=""font-size: 16px;"">J = YES &nbsp;&nbsp;&nbsp; F = NO</p>
        ","j","html-keyboard-response","383","2.1.0","375668","J=YES, F=NO","whx3wcp2ys","1","79","83","75","","","","","","","","","navigate","menu","metaphor","experimental","j","true","",""
"null","<p style=""font-size: 50px;"">+</p>","null","html-keyboard-response","384","2.1.0","375970","J=YES, F=NO","whx3wcp2ys","1","79","83","75","","","","","","","","","","","","","","","",""
"null","audio/beep-329314.mp3","null","audio-keyboard-response","385","2.1.0","377470","J=YES, F=NO","whx3wcp2ys","1","79","83","75","","","","","","","","","","","","","","","",""
"null","audio/smirk1.wav","null","audio-keyboard-response","386","2.1.0","378150","J=YES, F=NO","whx3wcp2ys","1","79","83","75","","","","","","","","","","","","","","","",""
"588","
          <p id=""word"" style=""font-size: 40px;"">snopt</p>
          <p style=""font-size: 16px;"">J = YES &nbsp;&nbsp;&nbsp; F = NO</p>
        ","f","html-keyboard-response","387","2.1.0","378739","J=YES, F=NO","whx3wcp2ys","1","79","83","75","","","","","","","","","snopt","smirk1","pseudoword","pseudoword","f","true","",""
"null","<p style=""font-size: 50px;"">+</p>","null","html-keyboard-response","388","2.1.0","379048","J=YES, F=NO","whx3wcp2ys","1","79","83","75","","","","","","","","","","","","","","","",""
"null","audio/beep-329314.mp3","null","audio-keyboard-response","389","2.1.0","380553","J=YES, F=NO","whx3wcp2ys","1","79","83","75","","","","","","","","","","","","","","","",""
"null","audio/planet1.wav","null","audio-keyboard-response","390","2.1.0","381113","J=YES, F=NO","whx3wcp2ys","1","79","83","75","","","","","","","","","","","","","","","",""
"571","
          <p id=""word"" style=""font-size: 40px;"">save</p>
          <p style=""font-size: 16px;"">J = YES &nbsp;&nbsp;&nbsp; F = NO</p>
        ","j","html-keyboard-response","391","2.1.0","381684","J=YES, F=NO","whx3wcp2ys","1","79","83","75","","","","","","","","","save","planet1","metaphor","experimental","j","true","",""
