"rt","stimulus","response","trial_type","trial_index","plugin_version","time_elapsed","response_mapping","subject_id","list_index","lextale_score","lextale_word_score","lextale_nonword_score","success","timeout","failed_images","failed_audio","failed_video","task","isWord","isDummy","target","prime","prime_type","stimulus_type","correct_response","correct","section","question_order"
"17654","
    <div style=""max-width: 800px; margin: auto; text-align: left;"">
      <h2>STANFORD UNIVERSITY</h2>
      <h3>Research Information Sheet</h3>
      <p><strong>Protocol Director:</strong> Robert Hawkins<br>
      <strong>Protocol Title:</strong> Communication and social cognition in natural audiovisual contexts<br>
      <strong>IRB#:</strong> 77226</p>

      <p><strong>DESCRIPTION:</strong> You are invited to participate in a research study about language and communication. The purpose of the research is to understand how you interact and communicate with other people in naturalistic settings as a fluent English speaker. This research will be conducted through the Prolific platform, including participants from the US, UK, and Canada. If you decide to participate in this research, you will play a communication game in a group with one or more partners.</p>

      <p><strong>TIME INVOLVEMENT:</strong> The task will last the amount of time advertised on Prolific. You are free to withdraw from the study at any time.</p>

      <p><strong>RISKS AND BENEFITS:</strong> You may become frustrated if your partner gets distracted, or experience discomfort if other participants in your group send text that is inappropriate for the task. We ask you to please be respectful of other participants you might be interacting with to mitigate these risks. You may also experience discomfort when being asked to discuss or challenge emotionally salient political beliefs. Study data will be stored securely, in compliance with Stanford University standards, minimizing the risk of confidentiality breach. This study advances our scientific understanding of how people communicate and collaborate in naturalistic settings. This study may lead to further insights about what can go wrong in teamwork, suggest potential interventions to overcome these barriers, and help to develop assistive technologies that collaborate with human partners. We cannot and do not guarantee or promise that you will receive any benefits from this study.</p>

      <p><strong>PAYMENTS:</strong> You will receive payment in the amount advertised on Prolific. If you do not complete this study, you will receive prorated payment based on the time that you have spent. Additionally, you may be eligible for bonus payments as described in the instructions.</p>

      <p><strong>PARTICIPANT’S RIGHTS:</strong> If you have read this form and have decided to participate in this project, please understand your participation is voluntary and you have the right to withdraw your consent or discontinue participation at any time without penalty or loss of benefits to which you are otherwise entitled. The alternative is not to participate. You have the right to refuse to answer particular questions. The results of this research study may be presented at scientific or professional meetings or published in scientific journals. Your individual privacy will be maintained in all published and written data resulting from the study. In accordance with scientific norms, the data from this study may be used or shared with other researchers for future research (after removing personally identifying information) without additional consent from you.</p>

      <p><strong>CONTACT INFORMATION:</strong><br>
      Questions: If you have any questions, concerns or complaints about this research, its procedures, risks and benefits, contact the Protocol Director, Robert Hawkins (<a href=""mailto:rdhawkins@stanford.edu"">rdhawkins@stanford.edu</a>, 217-549-6923).<br>
      Independent Contact: If you are not satisfied with how this study is being conducted, or if you have any concerns, complaints, or general questions about the research or your rights as a participant, please contact the Stanford Institutional Review Board (IRB) to speak to someone independent of the research team at 650-723-2480 or toll free at 1-866-680-2906, or email at <a href=""mailto:irbnon-med@stanford.edu"">irbnon-med@stanford.edu</a>. You can also write to the Stanford IRB, Stanford University, 1705 El Camino Real, Palo Alto, CA 94306.</p>

      <p><strong>Please save or print a copy of this page for your records.</strong></p>
      <p>If you agree to participate in this research, click ""Continue"" below.</p>
    </div>
  ","0","html-button-response","0","2.1.0","17732","J=YES, F=NO","wkc8pmvycv","2","79","83","75","","","","","","","","","","","","","","","",""
"6958","
    <div style=""max-width: 800px; margin: auto; text-align: left;"">
      <h2>Welcome!</h2>
      <p>Thank you for participating in this study. The experiment consists of three parts:</p>
      <ol>
        <li>An English vocabulary test</li>
        <li>A main task in which you will hear and see words, and decide whether the written word is a real English word</li>
        <li>A brief survey about your background</li>
      </ol>
      <p>Each part will be introduced before it begins.</p>
      <p>Please make sure you are in a quiet environment and can hear audio clearly for the final task.</p>
      <p style=""margin-top: 2em;"">Press any key to begin.</p>
    </div>
  "," ","html-keyboard-response","1","2.1.0","24693","J=YES, F=NO","wkc8pmvycv","2","79","83","75","","","","","","","","","","","","","","","",""
"","","","preload","2","2.1.0","29462","J=YES, F=NO","wkc8pmvycv","2","79","83","75","true","false","[]","[]","[]","","","","","","","","","","",""
"5855","
    <div style=""max-width: 800px; margin: auto; text-align: left;"">
      <h2>Part 1: Vocabulary Test</h2>
      <p>You will now complete the first part of the study: a short English vocabulary test.</p>
      <p>This test is called <strong>LexTALE</strong> and helps us get a general sense of your English proficiency.</p>
      <p style=""margin-top: 2em;"">Press any key to continue.</p>
    </div>
  "," ","html-keyboard-response","3","2.1.0","35319","J=YES, F=NO","wkc8pmvycv","2","79","83","75","","","","","","","","","","","","","","","",""
"8342","
    <div style=""max-width: 800px; margin: auto; text-align: left;"">
      <h2>LexTALE Vocabulary Test</h2>
      <p>In this test, you will see a series of letter strings—one at a time.</p>
      <p>Your task is to decide whether each string is a real English word.</p>
      <p><strong>Key responses:</strong></p>
      <ul>
        <li><strong>J</strong> = YES (real English word)</li>
        <li><strong>F</strong> = NO (not a real English word)</li>
      </ul>
      <p>There is no time limit, but please try to be accurate.</p>
      <p style=""margin-top: 2em;"">Press any key to begin.</p>
    </div>
  ","j","html-keyboard-response","4","2.1.0","43663","J=YES, F=NO","wkc8pmvycv","2","79","83","75","","","","","","","","","","","","","","","",""
"1284","
  <p style=""font-size: 40px;"">platery</p>
  <p style=""font-size: 16px;"">J = YES &nbsp;&nbsp;&nbsp; F = NO</p>
","j","html-keyboard-response","5","2.1.0","45055","J=YES, F=NO","wkc8pmvycv","2","79","83","75","","","","","","lextale","false","true","","","","","","","",""
"1028","
  <p style=""font-size: 40px;"">denial</p>
  <p style=""font-size: 16px;"">J = YES &nbsp;&nbsp;&nbsp; F = NO</p>
","j","html-keyboard-response","6","2.1.0","46085","J=YES, F=NO","wkc8pmvycv","2","79","83","75","","","","","","lextale","true","true","","","","","","","",""
"914","
  <p style=""font-size: 40px;"">marrit</p>
  <p style=""font-size: 16px;"">J = YES &nbsp;&nbsp;&nbsp; F = NO</p>
","f","html-keyboard-response","7","2.1.0","47000","J=YES, F=NO","wkc8pmvycv","2","79","83","75","","","","","","lextale","false","true","","","","","","","",""
"781","
  <p style=""font-size: 40px;"">bottle</p>
  <p style=""font-size: 16px;"">J = YES &nbsp;&nbsp;&nbsp; F = NO</p>
","j","html-keyboard-response","8","2.1.0","47782","J=YES, F=NO","wkc8pmvycv","2","79","83","75","","","","","","lextale","true","false","","","","","","","",""
"1057","
  <p style=""font-size: 40px;"">birst</p>
  <p style=""font-size: 16px;"">J = YES &nbsp;&nbsp;&nbsp; F = NO</p>
","f","html-keyboard-response","9","2.1.0","48841","J=YES, F=NO","wkc8pmvycv","2","79","83","75","","","","","","lextale","false","false","","","","","","","",""
"778","
  <p style=""font-size: 40px;"">envy</p>
  <p style=""font-size: 16px;"">J = YES &nbsp;&nbsp;&nbsp; F = NO</p>
","j","html-keyboard-response","10","2.1.0","49622","J=YES, F=NO","wkc8pmvycv","2","79","83","75","","","","","","lextale","true","false","","","","","","","",""
"1748","
  <p style=""font-size: 40px;"">brang</p>
  <p style=""font-size: 16px;"">J = YES &nbsp;&nbsp;&nbsp; F = NO</p>
","f","html-keyboard-response","11","2.1.0","51372","J=YES, F=NO","wkc8pmvycv","2","79","83","75","","","","","","lextale","false","false","","","","","","","",""
"755","
  <p style=""font-size: 40px;"">huge</p>
  <p style=""font-size: 16px;"">J = YES &nbsp;&nbsp;&nbsp; F = NO</p>
","j","html-keyboard-response","12","2.1.0","52129","J=YES, F=NO","wkc8pmvycv","2","79","83","75","","","","","","lextale","true","false","","","","","","","",""
"951","
  <p style=""font-size: 40px;"">plove</p>
  <p style=""font-size: 16px;"">J = YES &nbsp;&nbsp;&nbsp; F = NO</p>
","j","html-keyboard-response","13","2.1.0","53082","J=YES, F=NO","wkc8pmvycv","2","79","83","75","","","","","","lextale","false","false","","","","","","","",""
"946","
  <p style=""font-size: 40px;"">border</p>
  <p style=""font-size: 16px;"">J = YES &nbsp;&nbsp;&nbsp; F = NO</p>
","j","html-keyboard-response","14","2.1.0","54029","J=YES, F=NO","wkc8pmvycv","2","79","83","75","","","","","","lextale","true","false","","","","","","","",""
"884","
  <p style=""font-size: 40px;"">flimsy</p>
  <p style=""font-size: 16px;"">J = YES &nbsp;&nbsp;&nbsp; F = NO</p>
","j","html-keyboard-response","15","2.1.0","54914","J=YES, F=NO","wkc8pmvycv","2","79","83","75","","","","","","lextale","true","false","","","","","","","",""
"793","
  <p style=""font-size: 40px;"">drain</p>
  <p style=""font-size: 16px;"">J = YES &nbsp;&nbsp;&nbsp; F = NO</p>
","j","html-keyboard-response","16","2.1.0","55708","J=YES, F=NO","wkc8pmvycv","2","79","83","75","","","","","","lextale","true","false","","","","","","","",""
"1559","
  <p style=""font-size: 40px;"">twindle</p>
  <p style=""font-size: 16px;"">J = YES &nbsp;&nbsp;&nbsp; F = NO</p>
","j","html-keyboard-response","17","2.1.0","57269","J=YES, F=NO","wkc8pmvycv","2","79","83","75","","","","","","lextale","false","false","","","","","","","",""
"658","
  <p style=""font-size: 40px;"">propose</p>
  <p style=""font-size: 16px;"">J = YES &nbsp;&nbsp;&nbsp; F = NO</p>
","j","html-keyboard-response","18","2.1.0","57928","J=YES, F=NO","wkc8pmvycv","2","79","83","75","","","","","","lextale","true","false","","","","","","","",""
"774","
  <p style=""font-size: 40px;"">forlay</p>
  <p style=""font-size: 16px;"">J = YES &nbsp;&nbsp;&nbsp; F = NO</p>
","f","html-keyboard-response","19","2.1.0","58703","J=YES, F=NO","wkc8pmvycv","2","79","83","75","","","","","","lextale","false","false","","","","","","","",""
"864","
  <p style=""font-size: 40px;"">tenant</p>
  <p style=""font-size: 16px;"">J = YES &nbsp;&nbsp;&nbsp; F = NO</p>
","j","html-keyboard-response","20","2.1.0","59569","J=YES, F=NO","wkc8pmvycv","2","79","83","75","","","","","","lextale","true","false","","","","","","","",""
"809","
  <p style=""font-size: 40px;"">strain</p>
  <p style=""font-size: 16px;"">J = YES &nbsp;&nbsp;&nbsp; F = NO</p>
","j","html-keyboard-response","21","2.1.0","60379","J=YES, F=NO","wkc8pmvycv","2","79","83","75","","","","","","lextale","true","false","","","","","","","",""
"753","
  <p style=""font-size: 40px;"">holster</p>
  <p style=""font-size: 16px;"">J = YES &nbsp;&nbsp;&nbsp; F = NO</p>
","j","html-keyboard-response","22","2.1.0","61134","J=YES, F=NO","wkc8pmvycv","2","79","83","75","","","","","","lextale","true","false","","","","","","","",""
"756","
  <p style=""font-size: 40px;"">hinder</p>
  <p style=""font-size: 16px;"">J = YES &nbsp;&nbsp;&nbsp; F = NO</p>
","j","html-keyboard-response","23","2.1.0","61892","J=YES, F=NO","wkc8pmvycv","2","79","83","75","","","","","","lextale","true","false","","","","","","","",""
"802","
  <p style=""font-size: 40px;"">swindle</p>
  <p style=""font-size: 16px;"">J = YES &nbsp;&nbsp;&nbsp; F = NO</p>
","j","html-keyboard-response","24","2.1.0","62696","J=YES, F=NO","wkc8pmvycv","2","79","83","75","","","","","","lextale","true","false","","","","","","","",""
"903","
  <p style=""font-size: 40px;"">nuder</p>
  <p style=""font-size: 16px;"">J = YES &nbsp;&nbsp;&nbsp; F = NO</p>
","f","html-keyboard-response","25","2.1.0","63601","J=YES, F=NO","wkc8pmvycv","2","79","83","75","","","","","","lextale","false","false","","","","","","","",""
"1072","
  <p style=""font-size: 40px;"">pillow</p>
  <p style=""font-size: 16px;"">J = YES &nbsp;&nbsp;&nbsp; F = NO</p>
","j","html-keyboard-response","26","2.1.0","64674","J=YES, F=NO","wkc8pmvycv","2","79","83","75","","","","","","lextale","true","false","","","","","","","",""
"922","
  <p style=""font-size: 40px;"">shumble</p>
  <p style=""font-size: 16px;"">J = YES &nbsp;&nbsp;&nbsp; F = NO</p>
","f","html-keyboard-response","27","2.1.0","65597","J=YES, F=NO","wkc8pmvycv","2","79","83","75","","","","","","lextale","false","false","","","","","","","",""
"1154","
  <p style=""font-size: 40px;"">thirst</p>
  <p style=""font-size: 16px;"">J = YES &nbsp;&nbsp;&nbsp; F = NO</p>
","j","html-keyboard-response","28","2.1.0","66752","J=YES, F=NO","wkc8pmvycv","2","79","83","75","","","","","","lextale","true","false","","","","","","","",""
"1371","
  <p style=""font-size: 40px;"">unsail</p>
  <p style=""font-size: 16px;"">J = YES &nbsp;&nbsp;&nbsp; F = NO</p>
","f","html-keyboard-response","29","2.1.0","68124","J=YES, F=NO","wkc8pmvycv","2","79","83","75","","","","","","lextale","false","false","","","","","","","",""
"1105","
  <p style=""font-size: 40px;"">rifle</p>
  <p style=""font-size: 16px;"">J = YES &nbsp;&nbsp;&nbsp; F = NO</p>
","j","html-keyboard-response","30","2.1.0","69230","J=YES, F=NO","wkc8pmvycv","2","79","83","75","","","","","","lextale","true","false","","","","","","","",""
"879","
  <p style=""font-size: 40px;"">mush</p>
  <p style=""font-size: 16px;"">J = YES &nbsp;&nbsp;&nbsp; F = NO</p>
","j","html-keyboard-response","31","2.1.0","70110","J=YES, F=NO","wkc8pmvycv","2","79","83","75","","","","","","lextale","false","false","","","","","","","",""
"658","
  <p style=""font-size: 40px;"">drench</p>
  <p style=""font-size: 16px;"">J = YES &nbsp;&nbsp;&nbsp; F = NO</p>
","j","html-keyboard-response","32","2.1.0","70769","J=YES, F=NO","wkc8pmvycv","2","79","83","75","","","","","","lextale","true","false","","","","","","","",""
"2368","
  <p style=""font-size: 40px;"">snirt</p>
  <p style=""font-size: 16px;"">J = YES &nbsp;&nbsp;&nbsp; F = NO</p>
","j","html-keyboard-response","33","2.1.0","73138","J=YES, F=NO","wkc8pmvycv","2","79","83","75","","","","","","lextale","false","false","","","","","","","",""
"640","
  <p style=""font-size: 40px;"">bitter</p>
  <p style=""font-size: 16px;"">J = YES &nbsp;&nbsp;&nbsp; F = NO</p>
","j","html-keyboard-response","34","2.1.0","73781","J=YES, F=NO","wkc8pmvycv","2","79","83","75","","","","","","lextale","true","false","","","","","","","",""
"808","
  <p style=""font-size: 40px;"">pliff</p>
  <p style=""font-size: 16px;"">J = YES &nbsp;&nbsp;&nbsp; F = NO</p>
","f","html-keyboard-response","35","2.1.0","74590","J=YES, F=NO","wkc8pmvycv","2","79","83","75","","","","","","lextale","false","false","","","","","","","",""
"595","
  <p style=""font-size: 40px;"">tablet</p>
  <p style=""font-size: 16px;"">J = YES &nbsp;&nbsp;&nbsp; F = NO</p>
","j","html-keyboard-response","36","2.1.0","75187","J=YES, F=NO","wkc8pmvycv","2","79","83","75","","","","","","lextale","true","false","","","","","","","",""
"857","
  <p style=""font-size: 40px;"">glimmer</p>
  <p style=""font-size: 16px;"">J = YES &nbsp;&nbsp;&nbsp; F = NO</p>
","j","html-keyboard-response","37","2.1.0","76046","J=YES, F=NO","wkc8pmvycv","2","79","83","75","","","","","","lextale","true","false","","","","","","","",""
"1027","
  <p style=""font-size: 40px;"">slink</p>
  <p style=""font-size: 16px;"">J = YES &nbsp;&nbsp;&nbsp; F = NO</p>
","f","html-keyboard-response","38","2.1.0","77074","J=YES, F=NO","wkc8pmvycv","2","79","83","75","","","","","","lextale","true","false","","","","","","","",""
"688","
  <p style=""font-size: 40px;"">clever</p>
  <p style=""font-size: 16px;"">J = YES &nbsp;&nbsp;&nbsp; F = NO</p>
","j","html-keyboard-response","39","2.1.0","77764","J=YES, F=NO","wkc8pmvycv","2","79","83","75","","","","","","lextale","true","false","","","","","","","",""
"1063","
  <p style=""font-size: 40px;"">grum</p>
  <p style=""font-size: 16px;"">J = YES &nbsp;&nbsp;&nbsp; F = NO</p>
","f","html-keyboard-response","40","2.1.0","78829","J=YES, F=NO","wkc8pmvycv","2","79","83","75","","","","","","lextale","false","false","","","","","","","",""
"711","
  <p style=""font-size: 40px;"">string</p>
  <p style=""font-size: 16px;"">J = YES &nbsp;&nbsp;&nbsp; F = NO</p>
","j","html-keyboard-response","41","2.1.0","79541","J=YES, F=NO","wkc8pmvycv","2","79","83","75","","","","","","lextale","true","false","","","","","","","",""
"760","
  <p style=""font-size: 40px;"">plim</p>
  <p style=""font-size: 16px;"">J = YES &nbsp;&nbsp;&nbsp; F = NO</p>
","f","html-keyboard-response","42","2.1.0","80302","J=YES, F=NO","wkc8pmvycv","2","79","83","75","","","","","","lextale","false","false","","","","","","","",""
"583","
  <p style=""font-size: 40px;"">cable</p>
  <p style=""font-size: 16px;"">J = YES &nbsp;&nbsp;&nbsp; F = NO</p>
","j","html-keyboard-response","43","2.1.0","80886","J=YES, F=NO","wkc8pmvycv","2","79","83","75","","","","","","lextale","true","false","","","","","","","",""
"638","
  <p style=""font-size: 40px;"">shrivel</p>
  <p style=""font-size: 16px;"">J = YES &nbsp;&nbsp;&nbsp; F = NO</p>
","j","html-keyboard-response","44","2.1.0","81525","J=YES, F=NO","wkc8pmvycv","2","79","83","75","","","","","","lextale","true","false","","","","","","","",""
"928","
  <p style=""font-size: 40px;"">tarnish</p>
  <p style=""font-size: 16px;"">J = YES &nbsp;&nbsp;&nbsp; F = NO</p>
","j","html-keyboard-response","45","2.1.0","82456","J=YES, F=NO","wkc8pmvycv","2","79","83","75","","","","","","lextale","true","false","","","","","","","",""
"886","
  <p style=""font-size: 40px;"">blim</p>
  <p style=""font-size: 16px;"">J = YES &nbsp;&nbsp;&nbsp; F = NO</p>
","f","html-keyboard-response","46","2.1.0","83344","J=YES, F=NO","wkc8pmvycv","2","79","83","75","","","","","","lextale","false","false","","","","","","","",""
"882","
  <p style=""font-size: 40px;"">stifle</p>
  <p style=""font-size: 16px;"">J = YES &nbsp;&nbsp;&nbsp; F = NO</p>
","j","html-keyboard-response","47","2.1.0","84227","J=YES, F=NO","wkc8pmvycv","2","79","83","75","","","","","","lextale","true","false","","","","","","","",""
"1652","
  <p style=""font-size: 40px;"">bint</p>
  <p style=""font-size: 16px;"">J = YES &nbsp;&nbsp;&nbsp; F = NO</p>
","f","html-keyboard-response","48","2.1.0","85881","J=YES, F=NO","wkc8pmvycv","2","79","83","75","","","","","","lextale","false","false","","","","","","","",""
"560","
  <p style=""font-size: 40px;"">purple</p>
  <p style=""font-size: 16px;"">J = YES &nbsp;&nbsp;&nbsp; F = NO</p>
","j","html-keyboard-response","49","2.1.0","86442","J=YES, F=NO","wkc8pmvycv","2","79","83","75","","","","","","lextale","true","false","","","","","","","",""
"1018","
  <p style=""font-size: 40px;"">wriggle</p>
  <p style=""font-size: 16px;"">J = YES &nbsp;&nbsp;&nbsp; F = NO</p>
","j","html-keyboard-response","50","2.1.0","87460","J=YES, F=NO","wkc8pmvycv","2","79","83","75","","","","","","lextale","true","false","","","","","","","",""
"1093","
  <p style=""font-size: 40px;"">mangle</p>
  <p style=""font-size: 16px;"">J = YES &nbsp;&nbsp;&nbsp; F = NO</p>
","j","html-keyboard-response","51","2.1.0","88555","J=YES, F=NO","wkc8pmvycv","2","79","83","75","","","","","","lextale","true","false","","","","","","","",""
"1008","
  <p style=""font-size: 40px;"">shramp</p>
  <p style=""font-size: 16px;"">J = YES &nbsp;&nbsp;&nbsp; F = NO</p>
","f","html-keyboard-response","52","2.1.0","89565","J=YES, F=NO","wkc8pmvycv","2","79","83","75","","","","","","lextale","false","false","","","","","","","",""
"750","
  <p style=""font-size: 40px;"">flirt</p>
  <p style=""font-size: 16px;"">J = YES &nbsp;&nbsp;&nbsp; F = NO</p>
","j","html-keyboard-response","53","2.1.0","90317","J=YES, F=NO","wkc8pmvycv","2","79","83","75","","","","","","lextale","true","false","","","","","","","",""
"942","
  <p style=""font-size: 40px;"">frip</p>
  <p style=""font-size: 16px;"">J = YES &nbsp;&nbsp;&nbsp; F = NO</p>
","f","html-keyboard-response","54","2.1.0","91260","J=YES, F=NO","wkc8pmvycv","2","79","83","75","","","","","","lextale","false","false","","","","","","","",""
"1964","
  <p style=""font-size: 40px;"">tangle</p>
  <p style=""font-size: 16px;"">J = YES &nbsp;&nbsp;&nbsp; F = NO</p>
","j","html-keyboard-response","55","2.1.0","93225","J=YES, F=NO","wkc8pmvycv","2","79","83","75","","","","","","lextale","true","false","","","","","","","",""
"1408","
  <p style=""font-size: 40px;"">crumble</p>
  <p style=""font-size: 16px;"">J = YES &nbsp;&nbsp;&nbsp; F = NO</p>
","j","html-keyboard-response","56","2.1.0","94635","J=YES, F=NO","wkc8pmvycv","2","79","83","75","","","","","","lextale","true","false","","","","","","","",""
"606","
  <p style=""font-size: 40px;"">wrinkle</p>
  <p style=""font-size: 16px;"">J = YES &nbsp;&nbsp;&nbsp; F = NO</p>
","j","html-keyboard-response","57","2.1.0","95244","J=YES, F=NO","wkc8pmvycv","2","79","83","75","","","","","","lextale","true","false","","","","","","","",""
"1059","
  <p style=""font-size: 40px;"">slumb</p>
  <p style=""font-size: 16px;"">J = YES &nbsp;&nbsp;&nbsp; F = NO</p>
","f","html-keyboard-response","58","2.1.0","96304","J=YES, F=NO","wkc8pmvycv","2","79","83","75","","","","","","lextale","false","false","","","","","","","",""
"871","
  <p style=""font-size: 40px;"">jungle</p>
  <p style=""font-size: 16px;"">J = YES &nbsp;&nbsp;&nbsp; F = NO</p>
","j","html-keyboard-response","59","2.1.0","97177","J=YES, F=NO","wkc8pmvycv","2","79","83","75","","","","","","lextale","true","false","","","","","","","",""
"883","
  <p style=""font-size: 40px;"">frolick</p>
  <p style=""font-size: 16px;"">J = YES &nbsp;&nbsp;&nbsp; F = NO</p>
","f","html-keyboard-response","60","2.1.0","98061","J=YES, F=NO","wkc8pmvycv","2","79","83","75","","","","","","lextale","false","false","","","","","","","",""
"2349","
      <h2>LexTALE Test Completed</h2>
      <p>Your LexTALE vocabulary score is: <strong>79%</strong></p>
      <p>Press any key to continue.</p>
    "," ","html-keyboard-response","61","2.1.0","100413","J=YES, F=NO","wkc8pmvycv","2","79","83","75","","","","","","","","","","","","","","","",""
"6316","
    <div style=""max-width: 800px; margin: auto; text-align: left;"">
      <h2>Break Time</h2>
      <p>You have completed the first part of the study.</p>
      <p>You may take a short <strong>30-second break</strong> before continuing.</p>
      <p>When you’re ready, press any key to continue to the final task.</p>
    </div>
  "," ","html-keyboard-response","62","2.1.0","106730","J=YES, F=NO","wkc8pmvycv","2","79","83","75","","","","","","","","","","","","","","","",""
"20484","
    <div style=""max-width: 800px; margin: auto; text-align: left;"">
      <h2>Part 2: Lexical Decision Task</h2>
      <p>You will now begin the second part of the study.</p>
      <p>Each trial will follow this sequence:</p>
      <ul>
        <li>A fixation cross (+) appears at the center of the screen.</li>
        <li>You will hear a short beep followed by a spoken word.</li>
        <li>A written word will appear briefly on the screen.</li>
      </ul>
      <p>Your task is to judge whether the <strong>written word</strong> is a real English word.</p>
      <p style=""margin-top: 1em;""><strong>Key responses:</strong></p>
      <ul>
        <li><strong>J</strong> = YES (real English word)</li>
        <li><strong>F</strong> = NO (not a real English word)</li>
      </ul>
      <p>Please respond as quickly and accurately as you can.</p>
      <p style=""margin-top: 2em;"">Press any key to continue.</p>
    </div>
  "," ","html-keyboard-response","63","2.1.0","127215","J=YES, F=NO","wkc8pmvycv","2","79","83","75","","","","","","","","","","","","","","","",""
"8794","
    <div style=""max-width: 800px; margin: auto; text-align: left;"">
      <h2>Before You Begin</h2>
      <p>Make sure your sound is turned on.</p>
      <p>You will hear audio during each trial, but your decision should be based only on the <strong>written word</strong> you see on the screen.</p>
      <p><strong>Reminder:</strong></p>
      <ul>
        <li><strong>J</strong> = YES (real English word)</li>
        <li><strong>F</strong> = NO (not a real English word)</li>
      </ul>
      <p style=""margin-top: 2em;"">Press any key when you are ready to begin.</p>
    </div>
  ","j","html-keyboard-response","64","2.1.0","136011","J=YES, F=NO","wkc8pmvycv","2","79","83","75","","","","","","","","","","","","","","","",""
"1348","
    <div style=""max-width: 800px; margin: auto; text-align: left;"">
      <h2>Part 2: Practice Trials</h2>
      <p>You will now complete a few <strong>practice trials</strong> to get familiar with the task.</p>
      <p>These trials are <strong>not scored</strong> and are only to help you get used to the format.</p>
      <p style=""margin-top: 2em;"">Press any key to begin.</p>
    </div>
  "," ","html-keyboard-response","65","2.1.0","137359","J=YES, F=NO","wkc8pmvycv","2","79","83","75","","","","","","","","","","","","","","","",""
"1292","<p>Starting practice block 1 of 2. Press any key to continue.</p>"," ","html-keyboard-response","66","2.1.0","138653","J=YES, F=NO","wkc8pmvycv","2","79","83","75","","","","","","","","","","","","","","","",""
"null","<p style=""font-size: 50px;"">+</p>","null","html-keyboard-response","67","2.1.0","138959","J=YES, F=NO","wkc8pmvycv","2","79","83","75","","","","","","","","","","","","","","","",""
"null","audio/beep-329314.mp3","null","audio-keyboard-response","68","2.1.0","140661","J=YES, F=NO","wkc8pmvycv","2","79","83","75","","","","","","","","","","","","","","","",""
"null","audio/mile1.wav","null","audio-keyboard-response","69","2.1.0","141250","J=YES, F=NO","wkc8pmvycv","2","79","83","75","","","","","","","","","","","","","","","",""
"1368","
          <p id=""word"" style=""font-size: 40px;"">writch</p>
          <p style=""font-size: 16px;"">J = YES &nbsp;&nbsp;&nbsp; F = NO</p>
        ","f","html-keyboard-response","70","2.1.0","142621","J=YES, F=NO","wkc8pmvycv","2","79","83","75","","","","","","","","","writch","mile1","pseudoword","pseudoword","f","true","",""
"null","<p style=""font-size: 50px;"">+</p>","null","html-keyboard-response","71","2.1.0","142935","J=YES, F=NO","wkc8pmvycv","2","79","83","75","","","","","","","","","","","","","","","",""
"null","audio/beep-329314.mp3","null","audio-keyboard-response","72","2.1.0","144460","J=YES, F=NO","wkc8pmvycv","2","79","83","75","","","","","","","","","","","","","","","",""
"null","audio/menu.wav","null","audio-keyboard-response","73","2.1.0","145110","J=YES, F=NO","wkc8pmvycv","2","79","83","75","","","","","","","","","","","","","","","",""
"839","
          <p id=""word"" style=""font-size: 40px;"">slice</p>
          <p style=""font-size: 16px;"">J = YES &nbsp;&nbsp;&nbsp; F = NO</p>
        ","j","html-keyboard-response","74","2.1.0","145951","J=YES, F=NO","wkc8pmvycv","2","79","83","75","","","","","","","","","slice","menu","filler","filler","j","true","",""
"null","<p style=""font-size: 50px;"">+</p>","null","html-keyboard-response","75","2.1.0","146256","J=YES, F=NO","wkc8pmvycv","2","79","83","75","","","","","","","","","","","","","","","",""
"null","audio/beep-329314.mp3","null","audio-keyboard-response","76","2.1.0","147780","J=YES, F=NO","wkc8pmvycv","2","79","83","75","","","","","","","","","","","","","","","",""
"null","audio/novel.wav","null","audio-keyboard-response","77","2.1.0","148410","J=YES, F=NO","wkc8pmvycv","2","79","83","75","","","","","","","","","","","","","","","",""
"579","
          <p id=""word"" style=""font-size: 40px;"">type</p>
          <p style=""font-size: 16px;"">J = YES &nbsp;&nbsp;&nbsp; F = NO</p>
        ","j","html-keyboard-response","78","2.1.0","148991","J=YES, F=NO","wkc8pmvycv","2","79","83","75","","","","","","","","","type","novel","filler","filler","j","true","",""
"null","<p style=""font-size: 50px;"">+</p>","null","html-keyboard-response","79","2.1.0","149305","J=YES, F=NO","wkc8pmvycv","2","79","83","75","","","","","","","","","","","","","","","",""
"null","audio/beep-329314.mp3","null","audio-keyboard-response","80","2.1.0","150839","J=YES, F=NO","wkc8pmvycv","2","79","83","75","","","","","","","","","","","","","","","",""
"null","audio/haste1.wav","null","audio-keyboard-response","81","2.1.0","151468","J=YES, F=NO","wkc8pmvycv","2","79","83","75","","","","","","","","","","","","","","","",""
"897","
          <p id=""word"" style=""font-size: 40px;"">coraconate</p>
          <p style=""font-size: 16px;"">J = YES &nbsp;&nbsp;&nbsp; F = NO</p>
        ","f","html-keyboard-response","82","2.1.0","152366","J=YES, F=NO","wkc8pmvycv","2","79","83","75","","","","","","","","","coraconate","haste1","pseudoword","pseudoword","f","true","",""
"null","<p style=""font-size: 50px;"">+</p>","null","html-keyboard-response","83","2.1.0","152678","J=YES, F=NO","wkc8pmvycv","2","79","83","75","","","","","","","","","","","","","","","",""
"null","audio/beep-329314.mp3","null","audio-keyboard-response","84","2.1.0","154220","J=YES, F=NO","wkc8pmvycv","2","79","83","75","","","","","","","","","","","","","","","",""
"null","audio/ankle1.wav","null","audio-keyboard-response","85","2.1.0","154809","J=YES, F=NO","wkc8pmvycv","2","79","83","75","","","","","","","","","","","","","","","",""
"603","
          <p id=""word"" style=""font-size: 40px;"">kick</p>
          <p style=""font-size: 16px;"">J = YES &nbsp;&nbsp;&nbsp; F = NO</p>
        ","j","html-keyboard-response","86","2.1.0","155413","J=YES, F=NO","wkc8pmvycv","2","79","83","75","","","","","","","","","kick","ankle1","filler","filler","j","true","",""
"null","<p style=""font-size: 50px;"">+</p>","null","html-keyboard-response","87","2.1.0","155726","J=YES, F=NO","wkc8pmvycv","2","79","83","75","","","","","","","","","","","","","","","",""
"null","audio/beep-329314.mp3","null","audio-keyboard-response","88","2.1.0","157258","J=YES, F=NO","wkc8pmvycv","2","79","83","75","","","","","","","","","","","","","","","",""
"null","audio/desire.wav","null","audio-keyboard-response","89","2.1.0","157989","J=YES, F=NO","wkc8pmvycv","2","79","83","75","","","","","","","","","","","","","","","",""
"705","
          <p id=""word"" style=""font-size: 40px;"">nophed</p>
          <p style=""font-size: 16px;"">J = YES &nbsp;&nbsp;&nbsp; F = NO</p>
        ","f","html-keyboard-response","90","2.1.0","158695","J=YES, F=NO","wkc8pmvycv","2","79","83","75","","","","","","","","","nophed","desire","pseudoword","pseudoword","f","true","",""
"null","<p style=""font-size: 50px;"">+</p>","null","html-keyboard-response","91","2.1.0","159009","J=YES, F=NO","wkc8pmvycv","2","79","83","75","","","","","","","","","","","","","","","",""
"null","audio/beep-329314.mp3","null","audio-keyboard-response","92","2.1.0","160540","J=YES, F=NO","wkc8pmvycv","2","79","83","75","","","","","","","","","","","","","","","",""
"null","audio/kettle1.wav","null","audio-keyboard-response","93","2.1.0","161090","J=YES, F=NO","wkc8pmvycv","2","79","83","75","","","","","","","","","","","","","","","",""
"650","
          <p id=""word"" style=""font-size: 40px;"">wrap</p>
          <p style=""font-size: 16px;"">J = YES &nbsp;&nbsp;&nbsp; F = NO</p>
        ","j","html-keyboard-response","94","2.1.0","161742","J=YES, F=NO","wkc8pmvycv","2","79","83","75","","","","","","","","","wrap","kettle1","filler","filler","j","true","",""
"null","<p style=""font-size: 50px;"">+</p>","null","html-keyboard-response","95","2.1.0","162054","J=YES, F=NO","wkc8pmvycv","2","79","83","75","","","","","","","","","","","","","","","",""
"null","audio/beep-329314.mp3","null","audio-keyboard-response","96","2.1.0","163581","J=YES, F=NO","wkc8pmvycv","2","79","83","75","","","","","","","","","","","","","","","",""
"null","audio/belief.wav","null","audio-keyboard-response","97","2.1.0","164270","J=YES, F=NO","wkc8pmvycv","2","79","83","75","","","","","","","","","","","","","","","",""
"693","
          <p id=""word"" style=""font-size: 40px;"">read</p>
          <p style=""font-size: 16px;"">J = YES &nbsp;&nbsp;&nbsp; F = NO</p>
        ","j","html-keyboard-response","98","2.1.0","164965","J=YES, F=NO","wkc8pmvycv","2","79","83","75","","","","","","","","","read","belief","filler","filler","j","true","",""
"null","<p style=""font-size: 50px;"">+</p>","null","html-keyboard-response","99","2.1.0","165273","J=YES, F=NO","wkc8pmvycv","2","79","83","75","","","","","","","","","","","","","","","",""
"null","audio/beep-329314.mp3","null","audio-keyboard-response","100","2.1.0","166798","J=YES, F=NO","wkc8pmvycv","2","79","83","75","","","","","","","","","","","","","","","",""
"null","audio/terrain.wav","null","audio-keyboard-response","101","2.1.0","167428","J=YES, F=NO","wkc8pmvycv","2","79","83","75","","","","","","","","","","","","","","","",""
"567","
          <p id=""word"" style=""font-size: 40px;"">twist</p>
          <p style=""font-size: 16px;"">J = YES &nbsp;&nbsp;&nbsp; F = NO</p>
        ","j","html-keyboard-response","102","2.1.0","167996","J=YES, F=NO","wkc8pmvycv","2","79","83","75","","","","","","","","","twist","terrain","filler","filler","j","true","",""
"null","<p style=""font-size: 50px;"">+</p>","null","html-keyboard-response","103","2.1.0","168298","J=YES, F=NO","wkc8pmvycv","2","79","83","75","","","","","","","","","","","","","","","",""
"null","audio/beep-329314.mp3","null","audio-keyboard-response","104","2.1.0","169838","J=YES, F=NO","wkc8pmvycv","2","79","83","75","","","","","","","","","","","","","","","",""
"null","audio/dome.wav","null","audio-keyboard-response","105","2.1.0","170488","J=YES, F=NO","wkc8pmvycv","2","79","83","75","","","","","","","","","","","","","","","",""
"855","
          <p id=""word"" style=""font-size: 40px;"">scrupliness</p>
          <p style=""font-size: 16px;"">J = YES &nbsp;&nbsp;&nbsp; F = NO</p>
        ","j","html-keyboard-response","106","2.1.0","171344","J=YES, F=NO","wkc8pmvycv","2","79","83","75","","","","","","","","","scrupliness","dome","pseudoword","pseudoword","f","false","",""
"null","<p style=""font-size: 50px;"">+</p>","null","html-keyboard-response","107","2.1.0","171651","J=YES, F=NO","wkc8pmvycv","2","79","83","75","","","","","","","","","","","","","","","",""
"null","audio/beep-329314.mp3","null","audio-keyboard-response","108","2.1.0","173180","J=YES, F=NO","wkc8pmvycv","2","79","83","75","","","","","","","","","","","","","","","",""
"null","audio/bridge.wav","null","audio-keyboard-response","109","2.1.0","173790","J=YES, F=NO","wkc8pmvycv","2","79","83","75","","","","","","","","","","","","","","","",""
"521","
          <p id=""word"" style=""font-size: 40px;"">crack</p>
          <p style=""font-size: 16px;"">J = YES &nbsp;&nbsp;&nbsp; F = NO</p>
        ","j","html-keyboard-response","110","2.1.0","174313","J=YES, F=NO","wkc8pmvycv","2","79","83","75","","","","","","","","","crack","bridge","filler","filler","j","true","",""
"null","<p style=""font-size: 50px;"">+</p>","null","html-keyboard-response","111","2.1.0","174615","J=YES, F=NO","wkc8pmvycv","2","79","83","75","","","","","","","","","","","","","","","",""
"null","audio/beep-329314.mp3","null","audio-keyboard-response","112","2.1.0","176140","J=YES, F=NO","wkc8pmvycv","2","79","83","75","","","","","","","","","","","","","","","",""
"null","audio/battle1.wav","null","audio-keyboard-response","113","2.1.0","176670","J=YES, F=NO","wkc8pmvycv","2","79","83","75","","","","","","","","","","","","","","","",""
"662","
          <p id=""word"" style=""font-size: 40px;"">boil</p>
          <p style=""font-size: 16px;"">J = YES &nbsp;&nbsp;&nbsp; F = NO</p>
        ","j","html-keyboard-response","114","2.1.0","177335","J=YES, F=NO","wkc8pmvycv","2","79","83","75","","","","","","","","","boil","battle1","filler","filler","j","true","",""
"1833","<p>Starting practice block 2 of 2. Press any key to continue.</p>"," ","html-keyboard-response","115","2.1.0","179169","J=YES, F=NO","wkc8pmvycv","2","79","83","75","","","","","","","","","","","","","","","",""
"null","<p style=""font-size: 50px;"">+</p>","null","html-keyboard-response","116","2.1.0","179473","J=YES, F=NO","wkc8pmvycv","2","79","83","75","","","","","","","","","","","","","","","",""
"null","audio/beep-329314.mp3","null","audio-keyboard-response","117","2.1.0","180998","J=YES, F=NO","wkc8pmvycv","2","79","83","75","","","","","","","","","","","","","","","",""
"null","audio/meal.wav","null","audio-keyboard-response","118","2.1.0","181568","J=YES, F=NO","wkc8pmvycv","2","79","83","75","","","","","","","","","","","","","","","",""
"706","
          <p id=""word"" style=""font-size: 40px;"">gallite</p>
          <p style=""font-size: 16px;"">J = YES &nbsp;&nbsp;&nbsp; F = NO</p>
        ","f","html-keyboard-response","119","2.1.0","182276","J=YES, F=NO","wkc8pmvycv","2","79","83","75","","","","","","","","","gallite","meal","pseudoword","pseudoword","f","true","",""
"null","<p style=""font-size: 50px;"">+</p>","null","html-keyboard-response","120","2.1.0","182589","J=YES, F=NO","wkc8pmvycv","2","79","83","75","","","","","","","","","","","","","","","",""
"null","audio/beep-329314.mp3","null","audio-keyboard-response","121","2.1.0","184118","J=YES, F=NO","wkc8pmvycv","2","79","83","75","","","","","","","","","","","","","","","",""
"null","audio/baby.wav","null","audio-keyboard-response","122","2.1.0","184650","J=YES, F=NO","wkc8pmvycv","2","79","83","75","","","","","","","","","","","","","","","",""
"672","
          <p id=""word"" style=""font-size: 40px;"">lift</p>
          <p style=""font-size: 16px;"">J = YES &nbsp;&nbsp;&nbsp; F = NO</p>
        ","j","html-keyboard-response","123","2.1.0","185324","J=YES, F=NO","wkc8pmvycv","2","79","83","75","","","","","","","","","lift","baby","filler","filler","j","true","",""
"null","<p style=""font-size: 50px;"">+</p>","null","html-keyboard-response","124","2.1.0","185626","J=YES, F=NO","wkc8pmvycv","2","79","83","75","","","","","","","","","","","","","","","",""
"null","audio/beep-329314.mp3","null","audio-keyboard-response","125","2.1.0","187158","J=YES, F=NO","wkc8pmvycv","2","79","83","75","","","","","","","","","","","","","","","",""
"null","audio/pattern.wav","null","audio-keyboard-response","126","2.1.0","187769","J=YES, F=NO","wkc8pmvycv","2","79","83","75","","","","","","","","","","","","","","","",""
"892","
          <p id=""word"" style=""font-size: 40px;"">tug</p>
          <p style=""font-size: 16px;"">J = YES &nbsp;&nbsp;&nbsp; F = NO</p>
        ","j","html-keyboard-response","127","2.1.0","188663","J=YES, F=NO","wkc8pmvycv","2","79","83","75","","","","","","","","","tug","pattern","filler","filler","j","true","",""
"null","<p style=""font-size: 50px;"">+</p>","null","html-keyboard-response","128","2.1.0","188967","J=YES, F=NO","wkc8pmvycv","2","79","83","75","","","","","","","","","","","","","","","",""
"null","audio/beep-329314.mp3","null","audio-keyboard-response","129","2.1.0","190500","J=YES, F=NO","wkc8pmvycv","2","79","83","75","","","","","","","","","","","","","","","",""
"null","audio/prisoner.wav","null","audio-keyboard-response","130","2.1.0","191090","J=YES, F=NO","wkc8pmvycv","2","79","83","75","","","","","","","","","","","","","","","",""
"778","
          <p id=""word"" style=""font-size: 40px;"">egotian</p>
          <p style=""font-size: 16px;"">J = YES &nbsp;&nbsp;&nbsp; F = NO</p>
        ","f","html-keyboard-response","131","2.1.0","191870","J=YES, F=NO","wkc8pmvycv","2","79","83","75","","","","","","","","","egotian","prisoner","pseudoword","pseudoword","f","true","",""
"null","<p style=""font-size: 50px;"">+</p>","null","html-keyboard-response","132","2.1.0","192186","J=YES, F=NO","wkc8pmvycv","2","79","83","75","","","","","","","","","","","","","","","",""
"null","audio/beep-329314.mp3","null","audio-keyboard-response","133","2.1.0","193720","J=YES, F=NO","wkc8pmvycv","2","79","83","75","","","","","","","","","","","","","","","",""
"null","audio/burden.wav","null","audio-keyboard-response","134","2.1.0","194330","J=YES, F=NO","wkc8pmvycv","2","79","83","75","","","","","","","","","","","","","","","",""
"700","
          <p id=""word"" style=""font-size: 40px;"">whotth</p>
          <p style=""font-size: 16px;"">J = YES &nbsp;&nbsp;&nbsp; F = NO</p>
        ","f","html-keyboard-response","135","2.1.0","195032","J=YES, F=NO","wkc8pmvycv","2","79","83","75","","","","","","","","","whotth","burden","pseudoword","pseudoword","f","true","",""
"null","<p style=""font-size: 50px;"">+</p>","null","html-keyboard-response","136","2.1.0","195340","J=YES, F=NO","wkc8pmvycv","2","79","83","75","","","","","","","","","","","","","","","",""
"null","audio/beep-329314.mp3","null","audio-keyboard-response","137","2.1.0","196878","J=YES, F=NO","wkc8pmvycv","2","79","83","75","","","","","","","","","","","","","","","",""
"null","audio/life1.wav","null","audio-keyboard-response","138","2.1.0","197488","J=YES, F=NO","wkc8pmvycv","2","79","83","75","","","","","","","","","","","","","","","",""
"912","
          <p id=""word"" style=""font-size: 40px;"">flimch</p>
          <p style=""font-size: 16px;"">J = YES &nbsp;&nbsp;&nbsp; F = NO</p>
        ","j","html-keyboard-response","139","2.1.0","198402","J=YES, F=NO","wkc8pmvycv","2","79","83","75","","","","","","","","","flimch","life1","pseudoword","pseudoword","f","false","",""
"null","<p style=""font-size: 50px;"">+</p>","null","html-keyboard-response","140","2.1.0","198713","J=YES, F=NO","wkc8pmvycv","2","79","83","75","","","","","","","","","","","","","","","",""
"null","audio/beep-329314.mp3","null","audio-keyboard-response","141","2.1.0","200241","J=YES, F=NO","wkc8pmvycv","2","79","83","75","","","","","","","","","","","","","","","",""
"null","audio/trout1.wav","null","audio-keyboard-response","142","2.1.0","201168","J=YES, F=NO","wkc8pmvycv","2","79","83","75","","","","","","","","","","","","","","","",""
"646","
          <p id=""word"" style=""font-size: 40px;"">spimt</p>
          <p style=""font-size: 16px;"">J = YES &nbsp;&nbsp;&nbsp; F = NO</p>
        ","f","html-keyboard-response","143","2.1.0","201815","J=YES, F=NO","wkc8pmvycv","2","79","83","75","","","","","","","","","spimt","trout1","pseudoword","pseudoword","f","true","",""
"null","<p style=""font-size: 50px;"">+</p>","null","html-keyboard-response","144","2.1.0","202121","J=YES, F=NO","wkc8pmvycv","2","79","83","75","","","","","","","","","","","","","","","",""
"null","audio/beep-329314.mp3","null","audio-keyboard-response","145","2.1.0","203660","J=YES, F=NO","wkc8pmvycv","2","79","83","75","","","","","","","","","","","","","","","",""
"null","audio/stain.wav","null","audio-keyboard-response","146","2.1.0","204370","J=YES, F=NO","wkc8pmvycv","2","79","83","75","","","","","","","","","","","","","","","",""
"1075","
          <p id=""word"" style=""font-size: 40px;"">rumpsied</p>
          <p style=""font-size: 16px;"">J = YES &nbsp;&nbsp;&nbsp; F = NO</p>
        ","f","html-keyboard-response","147","2.1.0","205447","J=YES, F=NO","wkc8pmvycv","2","79","83","75","","","","","","","","","rumpsied","stain","pseudoword","pseudoword","f","true","",""
"null","<p style=""font-size: 50px;"">+</p>","null","html-keyboard-response","148","2.1.0","205758","J=YES, F=NO","wkc8pmvycv","2","79","83","75","","","","","","","","","","","","","","","",""
"null","audio/beep-329314.mp3","null","audio-keyboard-response","149","2.1.0","207300","J=YES, F=NO","wkc8pmvycv","2","79","83","75","","","","","","","","","","","","","","","",""
"null","audio/sand.wav","null","audio-keyboard-response","150","2.1.0","208168","J=YES, F=NO","wkc8pmvycv","2","79","83","75","","","","","","","","","","","","","","","",""
"967","
          <p id=""word"" style=""font-size: 40px;"">proted</p>
          <p style=""font-size: 16px;"">J = YES &nbsp;&nbsp;&nbsp; F = NO</p>
        ","f","html-keyboard-response","151","2.1.0","209137","J=YES, F=NO","wkc8pmvycv","2","79","83","75","","","","","","","","","proted","sand","pseudoword","pseudoword","f","true","",""
"null","<p style=""font-size: 50px;"">+</p>","null","html-keyboard-response","152","2.1.0","209453","J=YES, F=NO","wkc8pmvycv","2","79","83","75","","","","","","","","","","","","","","","",""
"null","audio/beep-329314.mp3","null","audio-keyboard-response","153","2.1.0","210979","J=YES, F=NO","wkc8pmvycv","2","79","83","75","","","","","","","","","","","","","","","",""
"null","audio/van1.wav","null","audio-keyboard-response","154","2.1.0","211530","J=YES, F=NO","wkc8pmvycv","2","79","83","75","","","","","","","","","","","","","","","",""
"596","
          <p id=""word"" style=""font-size: 40px;"">push</p>
          <p style=""font-size: 16px;"">J = YES &nbsp;&nbsp;&nbsp; F = NO</p>
        ","j","html-keyboard-response","155","2.1.0","212129","J=YES, F=NO","wkc8pmvycv","2","79","83","75","","","","","","","","","push","van1","filler","filler","j","true","",""
"null","<p style=""font-size: 50px;"">+</p>","null","html-keyboard-response","156","2.1.0","212431","J=YES, F=NO","wkc8pmvycv","2","79","83","75","","","","","","","","","","","","","","","",""
"null","audio/beep-329314.mp3","null","audio-keyboard-response","157","2.1.0","213960","J=YES, F=NO","wkc8pmvycv","2","79","83","75","","","","","","","","","","","","","","","",""
"null","audio/tunnel.wav","null","audio-keyboard-response","158","2.1.0","214470","J=YES, F=NO","wkc8pmvycv","2","79","83","75","","","","","","","","","","","","","","","",""
"680","
          <p id=""word"" style=""font-size: 40px;"">gred</p>
          <p style=""font-size: 16px;"">J = YES &nbsp;&nbsp;&nbsp; F = NO</p>
        ","f","html-keyboard-response","159","2.1.0","215151","J=YES, F=NO","wkc8pmvycv","2","79","83","75","","","","","","","","","gred","tunnel","pseudoword","pseudoword","f","true","",""
"null","<p style=""font-size: 50px;"">+</p>","null","html-keyboard-response","160","2.1.0","215458","J=YES, F=NO","wkc8pmvycv","2","79","83","75","","","","","","","","","","","","","","","",""
"null","audio/beep-329314.mp3","null","audio-keyboard-response","161","2.1.0","216999","J=YES, F=NO","wkc8pmvycv","2","79","83","75","","","","","","","","","","","","","","","",""
"null","audio/brain.wav","null","audio-keyboard-response","162","2.1.0","217530","J=YES, F=NO","wkc8pmvycv","2","79","83","75","","","","","","","","","","","","","","","",""
"815","
          <p id=""word"" style=""font-size: 40px;"">throw</p>
          <p style=""font-size: 16px;"">J = YES &nbsp;&nbsp;&nbsp; F = NO</p>
        ","j","html-keyboard-response","163","2.1.0","218347","J=YES, F=NO","wkc8pmvycv","2","79","83","75","","","","","","","","","throw","brain","filler","filler","j","true","",""
"6049","
    <div style=""max-width: 800px; margin: auto; text-align: left;"">
      <h2>Part 2: Main Trials</h2>
      <p>Great job on the practice trials!</p>
      <p>You will now begin the <strong>main set of trials</strong>.</p>
      <p>Remember your key assignments:</p>
      <ul>
        <li><strong>J</strong> = YES (real English word)</li>
        <li><strong>F</strong> = NO (not a real English word)</li>
      </ul>
      <p>Try to respond as <strong>quickly and accurately</strong> as possible.</p>
      <p style=""margin-top: 2em;"">Press any key to begin the main trials.</p>
    </div>
  ","AudioVolumeUp","html-keyboard-response","164","2.1.0","224399","J=YES, F=NO","wkc8pmvycv","2","79","83","75","","","","","","","","","","","","","","","",""
"188","<p>Starting main block 1 of 8. Press any key to continue.</p>","AudioVolumeUp","html-keyboard-response","165","2.1.0","224589","J=YES, F=NO","wkc8pmvycv","2","79","83","75","","","","","","","","","","","","","","","",""
"null","<p style=""font-size: 50px;"">+</p>","null","html-keyboard-response","166","2.1.0","224905","J=YES, F=NO","wkc8pmvycv","2","79","83","75","","","","","","","","","","","","","","","",""
"null","audio/beep-329314.mp3","null","audio-keyboard-response","167","2.1.0","226440","J=YES, F=NO","wkc8pmvycv","2","79","83","75","","","","","","","","","","","","","","","",""
"null","audio/truth1.wav","null","audio-keyboard-response","168","2.1.0","227111","J=YES, F=NO","wkc8pmvycv","2","79","83","75","","","","","","","","","","","","","","","",""
"785","
          <p id=""word"" style=""font-size: 40px;"">expose</p>
          <p style=""font-size: 16px;"">J = YES &nbsp;&nbsp;&nbsp; F = NO</p>
        ","j","html-keyboard-response","169","2.1.0","227898","J=YES, F=NO","wkc8pmvycv","2","79","83","75","","","","","","","","","expose","truth1","metaphor","experimental","j","true","",""
"null","<p style=""font-size: 50px;"">+</p>","null","html-keyboard-response","170","2.1.0","228205","J=YES, F=NO","wkc8pmvycv","2","79","83","75","","","","","","","","","","","","","","","",""
"null","audio/beep-329314.mp3","null","audio-keyboard-response","171","2.1.0","229738","J=YES, F=NO","wkc8pmvycv","2","79","83","75","","","","","","","","","","","","","","","",""
"null","audio/mind.wav","null","audio-keyboard-response","172","2.1.0","230410","J=YES, F=NO","wkc8pmvycv","2","79","83","75","","","","","","","","","","","","","","","",""
"696","
          <p id=""word"" style=""font-size: 40px;"">crainate</p>
          <p style=""font-size: 16px;"">J = YES &nbsp;&nbsp;&nbsp; F = NO</p>
        ","f","html-keyboard-response","173","2.1.0","231108","J=YES, F=NO","wkc8pmvycv","2","79","83","75","","","","","","","","","crainate","mind","pseudoword","pseudoword","f","true","",""
"null","<p style=""font-size: 50px;"">+</p>","null","html-keyboard-response","174","2.1.0","231417","J=YES, F=NO","wkc8pmvycv","2","79","83","75","","","","","","","","","","","","","","","",""
"null","audio/beep-329314.mp3","null","audio-keyboard-response","175","2.1.0","232939","J=YES, F=NO","wkc8pmvycv","2","79","83","75","","","","","","","","","","","","","","","",""
"null","audio/radio1.wav","null","audio-keyboard-response","176","2.1.0","233590","J=YES, F=NO","wkc8pmvycv","2","79","83","75","","","","","","","","","","","","","","","",""
"734","
          <p id=""word"" style=""font-size: 40px;"">blanter</p>
          <p style=""font-size: 16px;"">J = YES &nbsp;&nbsp;&nbsp; F = NO</p>
        ","f","html-keyboard-response","177","2.1.0","234325","J=YES, F=NO","wkc8pmvycv","2","79","83","75","","","","","","","","","blanter","radio1","pseudoword","pseudoword","f","true","",""
"null","<p style=""font-size: 50px;"">+</p>","null","html-keyboard-response","178","2.1.0","234628","J=YES, F=NO","wkc8pmvycv","2","79","83","75","","","","","","","","","","","","","","","",""
"null","audio/beep-329314.mp3","null","audio-keyboard-response","179","2.1.0","236160","J=YES, F=NO","wkc8pmvycv","2","79","83","75","","","","","","","","","","","","","","","",""
"null","audio/fortune1.wav","null","audio-keyboard-response","180","2.1.0","236989","J=YES, F=NO","wkc8pmvycv","2","79","83","75","","","","","","","","","","","","","","","",""
"599","
          <p id=""word"" style=""font-size: 40px;"">spend</p>
          <p style=""font-size: 16px;"">J = YES &nbsp;&nbsp;&nbsp; F = NO</p>
        ","j","html-keyboard-response","181","2.1.0","237590","J=YES, F=NO","wkc8pmvycv","2","79","83","75","","","","","","","","","spend","fortune1","literal","experimental","j","true","",""
"null","<p style=""font-size: 50px;"">+</p>","null","html-keyboard-response","182","2.1.0","237902","J=YES, F=NO","wkc8pmvycv","2","79","83","75","","","","","","","","","","","","","","","",""
"null","audio/beep-329314.mp3","null","audio-keyboard-response","183","2.1.0","239440","J=YES, F=NO","wkc8pmvycv","2","79","83","75","","","","","","","","","","","","","","","",""
"null","audio/account1.wav","null","audio-keyboard-response","184","2.1.0","240249","J=YES, F=NO","wkc8pmvycv","2","79","83","75","","","","","","","","","","","","","","","",""
"977","
          <p id=""word"" style=""font-size: 40px;"">paint</p>
          <p style=""font-size: 16px;"">J = YES &nbsp;&nbsp;&nbsp; F = NO</p>
        ","j","html-keyboard-response","185","2.1.0","241229","J=YES, F=NO","wkc8pmvycv","2","79","83","75","","","","","","","","","paint","account1","filler","filler","j","true","",""
"null","<p style=""font-size: 50px;"">+</p>","null","html-keyboard-response","186","2.1.0","241538","J=YES, F=NO","wkc8pmvycv","2","79","83","75","","","","","","","","","","","","","","","",""
"null","audio/beep-329314.mp3","null","audio-keyboard-response","187","2.1.0","243079","J=YES, F=NO","wkc8pmvycv","2","79","83","75","","","","","","","","","","","","","","","",""
"null","audio/plot1.wav","null","audio-keyboard-response","188","2.1.0","243690","J=YES, F=NO","wkc8pmvycv","2","79","83","75","","","","","","","","","","","","","","","",""
"773","
          <p id=""word"" style=""font-size: 40px;"">glenter</p>
          <p style=""font-size: 16px;"">J = YES &nbsp;&nbsp;&nbsp; F = NO</p>
        ","f","html-keyboard-response","189","2.1.0","244464","J=YES, F=NO","wkc8pmvycv","2","79","83","75","","","","","","","","","glenter","plot1","pseudoword","pseudoword","f","true","",""
"null","<p style=""font-size: 50px;"">+</p>","null","html-keyboard-response","190","2.1.0","244772","J=YES, F=NO","wkc8pmvycv","2","79","83","75","","","","","","","","","","","","","","","",""
"null","audio/beep-329314.mp3","null","audio-keyboard-response","191","2.1.0","246300","J=YES, F=NO","wkc8pmvycv","2","79","83","75","","","","","","","","","","","","","","","",""
"null","audio/survey1.wav","null","audio-keyboard-response","192","2.1.0","247090","J=YES, F=NO","wkc8pmvycv","2","79","83","75","","","","","","","","","","","","","","","",""
"591","
          <p id=""word"" style=""font-size: 40px;"">release</p>
          <p style=""font-size: 16px;"">J = YES &nbsp;&nbsp;&nbsp; F = NO</p>
        ","j","html-keyboard-response","193","2.1.0","247682","J=YES, F=NO","wkc8pmvycv","2","79","83","75","","","","","","","","","release","survey1","metaphor","experimental","j","true","",""
"null","<p style=""font-size: 50px;"">+</p>","null","html-keyboard-response","194","2.1.0","247988","J=YES, F=NO","wkc8pmvycv","2","79","83","75","","","","","","","","","","","","","","","",""
"null","audio/beep-329314.mp3","null","audio-keyboard-response","195","2.1.0","249520","J=YES, F=NO","wkc8pmvycv","2","79","83","75","","","","","","","","","","","","","","","",""
"null","audio/dollar.wav","null","audio-keyboard-response","196","2.1.0","249929","J=YES, F=NO","wkc8pmvycv","2","79","83","75","","","","","","","","","","","","","","","",""
"664","
          <p id=""word"" style=""font-size: 40px;"">gliptism</p>
          <p style=""font-size: 16px;"">J = YES &nbsp;&nbsp;&nbsp; F = NO</p>
        ","f","html-keyboard-response","197","2.1.0","250596","J=YES, F=NO","wkc8pmvycv","2","79","83","75","","","","","","","","","gliptism","dollar","pseudoword","pseudoword","f","true","",""
"null","<p style=""font-size: 50px;"">+</p>","null","html-keyboard-response","198","2.1.0","250906","J=YES, F=NO","wkc8pmvycv","2","79","83","75","","","","","","","","","","","","","","","",""
"null","audio/beep-329314.mp3","null","audio-keyboard-response","199","2.1.0","252440","J=YES, F=NO","wkc8pmvycv","2","79","83","75","","","","","","","","","","","","","","","",""
"null","audio/theory1.wav","null","audio-keyboard-response","200","2.1.0","253210","J=YES, F=NO","wkc8pmvycv","2","79","83","75","","","","","","","","","","","","","","","",""
"925","
          <p id=""word"" style=""font-size: 40px;"">scolve</p>
          <p style=""font-size: 16px;"">J = YES &nbsp;&nbsp;&nbsp; F = NO</p>
        ","j","html-keyboard-response","201","2.1.0","254137","J=YES, F=NO","wkc8pmvycv","2","79","83","75","","","","","","","","","scolve","theory1","pseudoword","pseudoword","f","false","",""
"null","<p style=""font-size: 50px;"">+</p>","null","html-keyboard-response","202","2.1.0","254449","J=YES, F=NO","wkc8pmvycv","2","79","83","75","","","","","","","","","","","","","","","",""
"null","audio/beep-329314.mp3","null","audio-keyboard-response","203","2.1.0","255980","J=YES, F=NO","wkc8pmvycv","2","79","83","75","","","","","","","","","","","","","","","",""
"null","audio/handle.wav","null","audio-keyboard-response","204","2.1.0","256669","J=YES, F=NO","wkc8pmvycv","2","79","83","75","","","","","","","","","","","","","","","",""
"584","
          <p id=""word"" style=""font-size: 40px;"">grasp</p>
          <p style=""font-size: 16px;"">J = YES &nbsp;&nbsp;&nbsp; F = NO</p>
        ","j","html-keyboard-response","205","2.1.0","257256","J=YES, F=NO","wkc8pmvycv","2","79","83","75","","","","","","","","","grasp","handle","literal","experimental","j","true","",""
"null","<p style=""font-size: 50px;"">+</p>","null","html-keyboard-response","206","2.1.0","257570","J=YES, F=NO","wkc8pmvycv","2","79","83","75","","","","","","","","","","","","","","","",""
"null","audio/beep-329314.mp3","null","audio-keyboard-response","207","2.1.0","259100","J=YES, F=NO","wkc8pmvycv","2","79","83","75","","","","","","","","","","","","","","","",""
"null","audio/cinema1.wav","null","audio-keyboard-response","208","2.1.0","259850","J=YES, F=NO","wkc8pmvycv","2","79","83","75","","","","","","","","","","","","","","","",""
"545","
          <p id=""word"" style=""font-size: 40px;"">grow</p>
          <p style=""font-size: 16px;"">J = YES &nbsp;&nbsp;&nbsp; F = NO</p>
        ","j","html-keyboard-response","209","2.1.0","260397","J=YES, F=NO","wkc8pmvycv","2","79","83","75","","","","","","","","","grow","cinema1","unrelated","experimental","j","true","",""
"null","<p style=""font-size: 50px;"">+</p>","null","html-keyboard-response","210","2.1.0","260711","J=YES, F=NO","wkc8pmvycv","2","79","83","75","","","","","","","","","","","","","","","",""
"null","audio/beep-329314.mp3","null","audio-keyboard-response","211","2.1.0","262240","J=YES, F=NO","wkc8pmvycv","2","79","83","75","","","","","","","","","","","","","","","",""
"null","audio/strength.wav","null","audio-keyboard-response","212","2.1.0","263008","J=YES, F=NO","wkc8pmvycv","2","79","83","75","","","","","","","","","","","","","","","",""
"639","
          <p id=""word"" style=""font-size: 40px;"">plabet</p>
          <p style=""font-size: 16px;"">J = YES &nbsp;&nbsp;&nbsp; F = NO</p>
        ","f","html-keyboard-response","213","2.1.0","263649","J=YES, F=NO","wkc8pmvycv","2","79","83","75","","","","","","","","","plabet","strength","pseudoword","pseudoword","f","true","",""
"null","<p style=""font-size: 50px;"">+</p>","null","html-keyboard-response","214","2.1.0","263966","J=YES, F=NO","wkc8pmvycv","2","79","83","75","","","","","","","","","","","","","","","",""
"null","audio/beep-329314.mp3","null","audio-keyboard-response","215","2.1.0","265500","J=YES, F=NO","wkc8pmvycv","2","79","83","75","","","","","","","","","","","","","","","",""
"null","audio/scar.wav","null","audio-keyboard-response","216","2.1.0","266150","J=YES, F=NO","wkc8pmvycv","2","79","83","75","","","","","","","","","","","","","","","",""
"687","
          <p id=""word"" style=""font-size: 40px;"">hide</p>
          <p style=""font-size: 16px;"">J = YES &nbsp;&nbsp;&nbsp; F = NO</p>
        ","j","html-keyboard-response","217","2.1.0","266839","J=YES, F=NO","wkc8pmvycv","2","79","83","75","","","","","","","","","hide","scar","literal","experimental","j","true","",""
"null","<p style=""font-size: 50px;"">+</p>","null","html-keyboard-response","218","2.1.0","267148","J=YES, F=NO","wkc8pmvycv","2","79","83","75","","","","","","","","","","","","","","","",""
"null","audio/beep-329314.mp3","null","audio-keyboard-response","219","2.1.0","268679","J=YES, F=NO","wkc8pmvycv","2","79","83","75","","","","","","","","","","","","","","","",""
"null","audio/heart1.wav","null","audio-keyboard-response","220","2.1.0","269448","J=YES, F=NO","wkc8pmvycv","2","79","83","75","","","","","","","","","","","","","","","",""
"795","
          <p id=""word"" style=""font-size: 40px;"">dralm</p>
          <p style=""font-size: 16px;"">J = YES &nbsp;&nbsp;&nbsp; F = NO</p>
        ","f","html-keyboard-response","221","2.1.0","270245","J=YES, F=NO","wkc8pmvycv","2","79","83","75","","","","","","","","","dralm","heart1","pseudoword","pseudoword","f","true","",""
"null","<p style=""font-size: 50px;"">+</p>","null","html-keyboard-response","222","2.1.0","270551","J=YES, F=NO","wkc8pmvycv","2","79","83","75","","","","","","","","","","","","","","","",""
"null","audio/beep-329314.mp3","null","audio-keyboard-response","223","2.1.0","272079","J=YES, F=NO","wkc8pmvycv","2","79","83","75","","","","","","","","","","","","","","","",""
"null","audio/lion1.wav","null","audio-keyboard-response","224","2.1.0","272790","J=YES, F=NO","wkc8pmvycv","2","79","83","75","","","","","","","","","","","","","","","",""
"711","
          <p id=""word"" style=""font-size: 40px;"">wrestle</p>
          <p style=""font-size: 16px;"">J = YES &nbsp;&nbsp;&nbsp; F = NO</p>
        ","j","html-keyboard-response","225","2.1.0","273503","J=YES, F=NO","wkc8pmvycv","2","79","83","75","","","","","","","","","wrestle","lion1","literal","experimental","j","true","",""
"null","<p style=""font-size: 50px;"">+</p>","null","html-keyboard-response","226","2.1.0","273805","J=YES, F=NO","wkc8pmvycv","2","79","83","75","","","","","","","","","","","","","","","",""
"null","audio/beep-329314.mp3","null","audio-keyboard-response","227","2.1.0","275338","J=YES, F=NO","wkc8pmvycv","2","79","83","75","","","","","","","","","","","","","","","",""
"null","audio/budget1.wav","null","audio-keyboard-response","228","2.1.0","275990","J=YES, F=NO","wkc8pmvycv","2","79","83","75","","","","","","","","","","","","","","","",""
"627","
          <p id=""word"" style=""font-size: 40px;"">sulist</p>
          <p style=""font-size: 16px;"">J = YES &nbsp;&nbsp;&nbsp; F = NO</p>
        ","f","html-keyboard-response","229","2.1.0","276618","J=YES, F=NO","wkc8pmvycv","2","79","83","75","","","","","","","","","sulist","budget1","pseudoword","pseudoword","f","true","",""
"2871","<p>Excellent! You have finished block 1 of 8.</p>
                     <p>Feel free to take a 30 second break.</p>
                     <p>Press any key when you're ready to continue.</p>"," ","html-keyboard-response","230","2.1.0","279492","J=YES, F=NO","wkc8pmvycv","2","79","83","75","","","","","","","","","","","","","","","",""
"3217","<p>Starting main block 2 of 8. Press any key to continue.</p>"," ","html-keyboard-response","231","2.1.0","282711","J=YES, F=NO","wkc8pmvycv","2","79","83","75","","","","","","","","","","","","","","","",""
"null","<p style=""font-size: 50px;"">+</p>","null","html-keyboard-response","232","2.1.0","283028","J=YES, F=NO","wkc8pmvycv","2","79","83","75","","","","","","","","","","","","","","","",""
"null","audio/beep-329314.mp3","null","audio-keyboard-response","233","2.1.0","284560","J=YES, F=NO","wkc8pmvycv","2","79","83","75","","","","","","","","","","","","","","","",""
"null","audio/winter.wav","null","audio-keyboard-response","234","2.1.0","285268","J=YES, F=NO","wkc8pmvycv","2","79","83","75","","","","","","","","","","","","","","","",""
"821","
          <p id=""word"" style=""font-size: 40px;"">straven</p>
          <p style=""font-size: 16px;"">J = YES &nbsp;&nbsp;&nbsp; F = NO</p>
        ","f","html-keyboard-response","235","2.1.0","286091","J=YES, F=NO","wkc8pmvycv","2","79","83","75","","","","","","","","","straven","winter","pseudoword","pseudoword","f","true","",""
"null","<p style=""font-size: 50px;"">+</p>","null","html-keyboard-response","236","2.1.0","286403","J=YES, F=NO","wkc8pmvycv","2","79","83","75","","","","","","","","","","","","","","","",""
"null","audio/beep-329314.mp3","null","audio-keyboard-response","237","2.1.0","287939","J=YES, F=NO","wkc8pmvycv","2","79","83","75","","","","","","","","","","","","","","","",""
"null","audio/topic.wav","null","audio-keyboard-response","238","2.1.0","288629","J=YES, F=NO","wkc8pmvycv","2","79","83","75","","","","","","","","","","","","","","","",""
"882","
          <p id=""word"" style=""font-size: 40px;"">infortuitist</p>
          <p style=""font-size: 16px;"">J = YES &nbsp;&nbsp;&nbsp; F = NO</p>
        ","f","html-keyboard-response","239","2.1.0","289513","J=YES, F=NO","wkc8pmvycv","2","79","83","75","","","","","","","","","infortuitist","topic","pseudoword","pseudoword","f","true","",""
"null","<p style=""font-size: 50px;"">+</p>","null","html-keyboard-response","240","2.1.0","289824","J=YES, F=NO","wkc8pmvycv","2","79","83","75","","","","","","","","","","","","","","","",""
"null","audio/beep-329314.mp3","null","audio-keyboard-response","241","2.1.0","291360","J=YES, F=NO","wkc8pmvycv","2","79","83","75","","","","","","","","","","","","","","","",""
"null","audio/fence.wav","null","audio-keyboard-response","242","2.1.0","292069","J=YES, F=NO","wkc8pmvycv","2","79","83","75","","","","","","","","","","","","","","","",""
"514","
          <p id=""word"" style=""font-size: 40px;"">climb</p>
          <p style=""font-size: 16px;"">J = YES &nbsp;&nbsp;&nbsp; F = NO</p>
        ","j","html-keyboard-response","243","2.1.0","292585","J=YES, F=NO","wkc8pmvycv","2","79","83","75","","","","","","","","","climb","fence","literal","experimental","j","true","",""
"null","<p style=""font-size: 50px;"">+</p>","null","html-keyboard-response","244","2.1.0","292897","J=YES, F=NO","wkc8pmvycv","2","79","83","75","","","","","","","","","","","","","","","",""
"null","audio/beep-329314.mp3","null","audio-keyboard-response","245","2.1.0","294437","J=YES, F=NO","wkc8pmvycv","2","79","83","75","","","","","","","","","","","","","","","",""
"null","audio/stain.wav","null","audio-keyboard-response","246","2.1.0","295070","J=YES, F=NO","wkc8pmvycv","2","79","83","75","","","","","","","","","","","","","","","",""
"582","
          <p id=""word"" style=""font-size: 40px;"">wipe</p>
          <p style=""font-size: 16px;"">J = YES &nbsp;&nbsp;&nbsp; F = NO</p>
        ","j","html-keyboard-response","247","2.1.0","295653","J=YES, F=NO","wkc8pmvycv","2","79","83","75","","","","","","","","","wipe","stain","literal","experimental","j","true","",""
"null","<p style=""font-size: 50px;"">+</p>","null","html-keyboard-response","248","2.1.0","295968","J=YES, F=NO","wkc8pmvycv","2","79","83","75","","","","","","","","","","","","","","","",""
"null","audio/beep-329314.mp3","null","audio-keyboard-response","249","2.1.0","297500","J=YES, F=NO","wkc8pmvycv","2","79","83","75","","","","","","","","","","","","","","","",""
"null","audio/age1.wav","null","audio-keyboard-response","250","2.1.0","298189","J=YES, F=NO","wkc8pmvycv","2","79","83","75","","","","","","","","","","","","","","","",""
"640","
          <p id=""word"" style=""font-size: 40px;"">seize</p>
          <p style=""font-size: 16px;"">J = YES &nbsp;&nbsp;&nbsp; F = NO</p>
        ","j","html-keyboard-response","251","2.1.0","298830","J=YES, F=NO","wkc8pmvycv","2","79","83","75","","","","","","","","","seize","age1","unrelated","experimental","j","true","",""
"null","<p style=""font-size: 50px;"">+</p>","null","html-keyboard-response","252","2.1.0","299136","J=YES, F=NO","wkc8pmvycv","2","79","83","75","","","","","","","","","","","","","","","",""
"null","audio/beep-329314.mp3","null","audio-keyboard-response","253","2.1.0","300658","J=YES, F=NO","wkc8pmvycv","2","79","83","75","","","","","","","","","","","","","","","",""
"null","audio/hawk1.wav","null","audio-keyboard-response","254","2.1.0","301369","J=YES, F=NO","wkc8pmvycv","2","79","83","75","","","","","","","","","","","","","","","",""
"696","
          <p id=""word"" style=""font-size: 40px;"">ostach</p>
          <p style=""font-size: 16px;"">J = YES &nbsp;&nbsp;&nbsp; F = NO</p>
        ","f","html-keyboard-response","255","2.1.0","302066","J=YES, F=NO","wkc8pmvycv","2","79","83","75","","","","","","","","","ostach","hawk1","pseudoword","pseudoword","f","true","",""
"null","<p style=""font-size: 50px;"">+</p>","null","html-keyboard-response","256","2.1.0","302368","J=YES, F=NO","wkc8pmvycv","2","79","83","75","","","","","","","","","","","","","","","",""
"null","audio/beep-329314.mp3","null","audio-keyboard-response","257","2.1.0","303899","J=YES, F=NO","wkc8pmvycv","2","79","83","75","","","","","","","","","","","","","","","",""
"null","audio/age1.wav","null","audio-keyboard-response","258","2.1.0","304429","J=YES, F=NO","wkc8pmvycv","2","79","83","75","","","","","","","","","","","","","","","",""
"564","
          <p id=""word"" style=""font-size: 40px;"">bake</p>
          <p style=""font-size: 16px;"">J = YES &nbsp;&nbsp;&nbsp; F = NO</p>
        ","j","html-keyboard-response","259","2.1.0","304996","J=YES, F=NO","wkc8pmvycv","2","79","83","75","","","","","","","","","bake","age1","filler","filler","j","true","",""
"null","<p style=""font-size: 50px;"">+</p>","null","html-keyboard-response","260","2.1.0","305309","J=YES, F=NO","wkc8pmvycv","2","79","83","75","","","","","","","","","","","","","","","",""
"null","audio/beep-329314.mp3","null","audio-keyboard-response","261","2.1.0","306840","J=YES, F=NO","wkc8pmvycv","2","79","83","75","","","","","","","","","","","","","","","",""
"null","audio/corpse1.wav","null","audio-keyboard-response","262","2.1.0","307530","J=YES, F=NO","wkc8pmvycv","2","79","83","75","","","","","","","","","","","","","","","",""
"597","
          <p id=""word"" style=""font-size: 40px;"">glonet</p>
          <p style=""font-size: 16px;"">J = YES &nbsp;&nbsp;&nbsp; F = NO</p>
        ","f","html-keyboard-response","263","2.1.0","308129","J=YES, F=NO","wkc8pmvycv","2","79","83","75","","","","","","","","","glonet","corpse1","pseudoword","pseudoword","f","true","",""
"null","<p style=""font-size: 50px;"">+</p>","null","html-keyboard-response","264","2.1.0","308436","J=YES, F=NO","wkc8pmvycv","2","79","83","75","","","","","","","","","","","","","","","",""
"null","audio/beep-329314.mp3","null","audio-keyboard-response","265","2.1.0","309959","J=YES, F=NO","wkc8pmvycv","2","79","83","75","","","","","","","","","","","","","","","",""
"null","audio/effort.wav","null","audio-keyboard-response","266","2.1.0","310690","J=YES, F=NO","wkc8pmvycv","2","79","83","75","","","","","","","","","","","","","","","",""
"638","
          <p id=""word"" style=""font-size: 40px;"">whonk</p>
          <p style=""font-size: 16px;"">J = YES &nbsp;&nbsp;&nbsp; F = NO</p>
        ","f","html-keyboard-response","267","2.1.0","311330","J=YES, F=NO","wkc8pmvycv","2","79","83","75","","","","","","","","","whonk","effort","pseudoword","pseudoword","f","true","",""
"null","<p style=""font-size: 50px;"">+</p>","null","html-keyboard-response","268","2.1.0","311636","J=YES, F=NO","wkc8pmvycv","2","79","83","75","","","","","","","","","","","","","","","",""
"null","audio/beep-329314.mp3","null","audio-keyboard-response","269","2.1.0","313159","J=YES, F=NO","wkc8pmvycv","2","79","83","75","","","","","","","","","","","","","","","",""
"null","audio/gift1.wav","null","audio-keyboard-response","270","2.1.0","313690","J=YES, F=NO","wkc8pmvycv","2","79","83","75","","","","","","","","","","","","","","","",""
"575","
          <p id=""word"" style=""font-size: 40px;"">protsh</p>
          <p style=""font-size: 16px;"">J = YES &nbsp;&nbsp;&nbsp; F = NO</p>
        ","f","html-keyboard-response","271","2.1.0","314267","J=YES, F=NO","wkc8pmvycv","2","79","83","75","","","","","","","","","protsh","gift1","pseudoword","pseudoword","f","true","",""
"null","<p style=""font-size: 50px;"">+</p>","null","html-keyboard-response","272","2.1.0","314572","J=YES, F=NO","wkc8pmvycv","2","79","83","75","","","","","","","","","","","","","","","",""
"null","audio/beep-329314.mp3","null","audio-keyboard-response","273","2.1.0","316099","J=YES, F=NO","wkc8pmvycv","2","79","83","75","","","","","","","","","","","","","","","",""
"null","audio/relief.wav","null","audio-keyboard-response","274","2.1.0","316811","J=YES, F=NO","wkc8pmvycv","2","79","83","75","","","","","","","","","","","","","","","",""
"578","
          <p id=""word"" style=""font-size: 40px;"">grigg</p>
          <p style=""font-size: 16px;"">J = YES &nbsp;&nbsp;&nbsp; F = NO</p>
        ","f","html-keyboard-response","275","2.1.0","317391","J=YES, F=NO","wkc8pmvycv","2","79","83","75","","","","","","","","","grigg","relief","pseudoword","pseudoword","f","true","",""
"null","<p style=""font-size: 50px;"">+</p>","null","html-keyboard-response","276","2.1.0","317698","J=YES, F=NO","wkc8pmvycv","2","79","83","75","","","","","","","","","","","","","","","",""
"null","audio/beep-329314.mp3","null","audio-keyboard-response","277","2.1.0","319239","J=YES, F=NO","wkc8pmvycv","2","79","83","75","","","","","","","","","","","","","","","",""
"null","audio/ego.wav","null","audio-keyboard-response","278","2.1.0","319910","J=YES, F=NO","wkc8pmvycv","2","79","83","75","","","","","","","","","","","","","","","",""
"690","
          <p id=""word"" style=""font-size: 40px;"">feed</p>
          <p style=""font-size: 16px;"">J = YES &nbsp;&nbsp;&nbsp; F = NO</p>
        ","j","html-keyboard-response","279","2.1.0","320602","J=YES, F=NO","wkc8pmvycv","2","79","83","75","","","","","","","","","feed","ego","metaphor","experimental","j","true","",""
"null","<p style=""font-size: 50px;"">+</p>","null","html-keyboard-response","280","2.1.0","320910","J=YES, F=NO","wkc8pmvycv","2","79","83","75","","","","","","","","","","","","","","","",""
"null","audio/beep-329314.mp3","null","audio-keyboard-response","281","2.1.0","322440","J=YES, F=NO","wkc8pmvycv","2","79","83","75","","","","","","","","","","","","","","","",""
"null","audio/terrain.wav","null","audio-keyboard-response","282","2.1.0","323010","J=YES, F=NO","wkc8pmvycv","2","79","83","75","","","","","","","","","","","","","","","",""
"613","
          <p id=""word"" style=""font-size: 40px;"">navigate</p>
          <p style=""font-size: 16px;"">J = YES &nbsp;&nbsp;&nbsp; F = NO</p>
        ","j","html-keyboard-response","283","2.1.0","323625","J=YES, F=NO","wkc8pmvycv","2","79","83","75","","","","","","","","","navigate","terrain","literal","experimental","j","true","",""
"null","<p style=""font-size: 50px;"">+</p>","null","html-keyboard-response","284","2.1.0","323935","J=YES, F=NO","wkc8pmvycv","2","79","83","75","","","","","","","","","","","","","","","",""
"null","audio/beep-329314.mp3","null","audio-keyboard-response","285","2.1.0","325458","J=YES, F=NO","wkc8pmvycv","2","79","83","75","","","","","","","","","","","","","","","",""
"null","audio/scar.wav","null","audio-keyboard-response","286","2.1.0","326030","J=YES, F=NO","wkc8pmvycv","2","79","83","75","","","","","","","","","","","","","","","",""
"591","
          <p id=""word"" style=""font-size: 40px;"">adelineate</p>
          <p style=""font-size: 16px;"">J = YES &nbsp;&nbsp;&nbsp; F = NO</p>
        ","f","html-keyboard-response","287","2.1.0","326623","J=YES, F=NO","wkc8pmvycv","2","79","83","75","","","","","","","","","adelineate","scar","pseudoword","pseudoword","f","true","",""
"null","<p style=""font-size: 50px;"">+</p>","null","html-keyboard-response","288","2.1.0","326926","J=YES, F=NO","wkc8pmvycv","2","79","83","75","","","","","","","","","","","","","","","",""
"null","audio/beep-329314.mp3","null","audio-keyboard-response","289","2.1.0","328460","J=YES, F=NO","wkc8pmvycv","2","79","83","75","","","","","","","","","","","","","","","",""
"null","audio/size1.wav","null","audio-keyboard-response","290","2.1.0","329349","J=YES, F=NO","wkc8pmvycv","2","79","83","75","","","","","","","","","","","","","","","",""
"489","
          <p id=""word"" style=""font-size: 40px;"">clear</p>
          <p style=""font-size: 16px;"">J = YES &nbsp;&nbsp;&nbsp; F = NO</p>
        ","j","html-keyboard-response","291","2.1.0","329840","J=YES, F=NO","wkc8pmvycv","2","79","83","75","","","","","","","","","clear","size1","unrelated","experimental","j","true","",""
"null","<p style=""font-size: 50px;"">+</p>","null","html-keyboard-response","292","2.1.0","330152","J=YES, F=NO","wkc8pmvycv","2","79","83","75","","","","","","","","","","","","","","","",""
"null","audio/beep-329314.mp3","null","audio-keyboard-response","293","2.1.0","331678","J=YES, F=NO","wkc8pmvycv","2","79","83","75","","","","","","","","","","","","","","","",""
"null","audio/window1.wav","null","audio-keyboard-response","294","2.1.0","332628","J=YES, F=NO","wkc8pmvycv","2","79","83","75","","","","","","","","","","","","","","","",""
"667","
          <p id=""word"" style=""font-size: 40px;"">toss</p>
          <p style=""font-size: 16px;"">J = YES &nbsp;&nbsp;&nbsp; F = NO</p>
        ","j","html-keyboard-response","295","2.1.0","333296","J=YES, F=NO","wkc8pmvycv","2","79","83","75","","","","","","","","","toss","window1","filler","filler","j","true","",""
"9808","<p>Excellent! You have finished block 2 of 8.</p>
                     <p>Feel free to take a 30 second break.</p>
                     <p>Press any key when you're ready to continue.</p>"," ","html-keyboard-response","296","2.1.0","343105","J=YES, F=NO","wkc8pmvycv","2","79","83","75","","","","","","","","","","","","","","","",""
"3109","<p>Starting main block 3 of 8. Press any key to continue.</p>"," ","html-keyboard-response","297","2.1.0","346216","J=YES, F=NO","wkc8pmvycv","2","79","83","75","","","","","","","","","","","","","","","",""
"null","<p style=""font-size: 50px;"">+</p>","null","html-keyboard-response","298","2.1.0","346532","J=YES, F=NO","wkc8pmvycv","2","79","83","75","","","","","","","","","","","","","","","",""
"null","audio/beep-329314.mp3","null","audio-keyboard-response","299","2.1.0","348066","J=YES, F=NO","wkc8pmvycv","2","79","83","75","","","","","","","","","","","","","","","",""
"null","audio/weight1.wav","null","audio-keyboard-response","300","2.1.0","348756","J=YES, F=NO","wkc8pmvycv","2","79","83","75","","","","","","","","","","","","","","","",""
"552","
          <p id=""word"" style=""font-size: 40px;"">support</p>
          <p style=""font-size: 16px;"">J = YES &nbsp;&nbsp;&nbsp; F = NO</p>
        ","j","html-keyboard-response","301","2.1.0","349309","J=YES, F=NO","wkc8pmvycv","2","79","83","75","","","","","","","","","support","weight1","literal","experimental","j","true","",""
"null","<p style=""font-size: 50px;"">+</p>","null","html-keyboard-response","302","2.1.0","349611","J=YES, F=NO","wkc8pmvycv","2","79","83","75","","","","","","","","","","","","","","","",""
"null","audio/beep-329314.mp3","null","audio-keyboard-response","303","2.1.0","351146","J=YES, F=NO","wkc8pmvycv","2","79","83","75","","","","","","","","","","","","","","","",""
"null","audio/tax1.wav","null","audio-keyboard-response","304","2.1.0","351795","J=YES, F=NO","wkc8pmvycv","2","79","83","75","","","","","","","","","","","","","","","",""
"514","
          <p id=""word"" style=""font-size: 40px;"">scrap</p>
          <p style=""font-size: 16px;"">J = YES &nbsp;&nbsp;&nbsp; F = NO</p>
        ","j","html-keyboard-response","305","2.1.0","352311","J=YES, F=NO","wkc8pmvycv","2","79","83","75","","","","","","","","","scrap","tax1","metaphor","experimental","j","true","",""
"null","<p style=""font-size: 50px;"">+</p>","null","html-keyboard-response","306","2.1.0","352621","J=YES, F=NO","wkc8pmvycv","2","79","83","75","","","","","","","","","","","","","","","",""
"null","audio/beep-329314.mp3","null","audio-keyboard-response","307","2.1.0","354145","J=YES, F=NO","wkc8pmvycv","2","79","83","75","","","","","","","","","","","","","","","",""
"null","audio/camera1.wav","null","audio-keyboard-response","308","2.1.0","354695","J=YES, F=NO","wkc8pmvycv","2","79","83","75","","","","","","","","","","","","","","","",""
"603","
          <p id=""word"" style=""font-size: 40px;"">stir</p>
          <p style=""font-size: 16px;"">J = YES &nbsp;&nbsp;&nbsp; F = NO</p>
        ","j","html-keyboard-response","309","2.1.0","355300","J=YES, F=NO","wkc8pmvycv","2","79","83","75","","","","","","","","","stir","camera1","filler","filler","j","true","",""
"null","<p style=""font-size: 50px;"">+</p>","null","html-keyboard-response","310","2.1.0","355605","J=YES, F=NO","wkc8pmvycv","2","79","83","75","","","","","","","","","","","","","","","",""
"null","audio/beep-329314.mp3","null","audio-keyboard-response","311","2.1.0","357146","J=YES, F=NO","wkc8pmvycv","2","79","83","75","","","","","","","","","","","","","","","",""
"null","audio/show.wav","null","audio-keyboard-response","312","2.1.0","357755","J=YES, F=NO","wkc8pmvycv","2","79","83","75","","","","","","","","","","","","","","","",""
"447","
          <p id=""word"" style=""font-size: 40px;"">hold</p>
          <p style=""font-size: 16px;"">J = YES &nbsp;&nbsp;&nbsp; F = NO</p>
        ","j","html-keyboard-response","313","2.1.0","358204","J=YES, F=NO","wkc8pmvycv","2","79","83","75","","","","","","","","","hold","show","metaphor","experimental","j","true","",""
"null","<p style=""font-size: 50px;"">+</p>","null","html-keyboard-response","314","2.1.0","358507","J=YES, F=NO","wkc8pmvycv","2","79","83","75","","","","","","","","","","","","","","","",""
"null","audio/beep-329314.mp3","null","audio-keyboard-response","315","2.1.0","360046","J=YES, F=NO","wkc8pmvycv","2","79","83","75","","","","","","","","","","","","","","","",""
"null","audio/soul.wav","null","audio-keyboard-response","316","2.1.0","360755","J=YES, F=NO","wkc8pmvycv","2","79","83","75","","","","","","","","","","","","","","","",""
"517","
          <p id=""word"" style=""font-size: 40px;"">sell</p>
          <p style=""font-size: 16px;"">J = YES &nbsp;&nbsp;&nbsp; F = NO</p>
        ","j","html-keyboard-response","317","2.1.0","361275","J=YES, F=NO","wkc8pmvycv","2","79","83","75","","","","","","","","","sell","soul","metaphor","experimental","j","true","",""
"null","<p style=""font-size: 50px;"">+</p>","null","html-keyboard-response","318","2.1.0","361582","J=YES, F=NO","wkc8pmvycv","2","79","83","75","","","","","","","","","","","","","","","",""
"null","audio/beep-329314.mp3","null","audio-keyboard-response","319","2.1.0","363106","J=YES, F=NO","wkc8pmvycv","2","79","83","75","","","","","","","","","","","","","","","",""
"null","audio/arm.wav","null","audio-keyboard-response","320","2.1.0","363716","J=YES, F=NO","wkc8pmvycv","2","79","83","75","","","","","","","","","","","","","","","",""
"719","
          <p id=""word"" style=""font-size: 40px;"">pigne</p>
          <p style=""font-size: 16px;"">J = YES &nbsp;&nbsp;&nbsp; F = NO</p>
        ","f","html-keyboard-response","321","2.1.0","364437","J=YES, F=NO","wkc8pmvycv","2","79","83","75","","","","","","","","","pigne","arm","pseudoword","pseudoword","f","true","",""
"null","<p style=""font-size: 50px;"">+</p>","null","html-keyboard-response","322","2.1.0","364741","J=YES, F=NO","wkc8pmvycv","2","79","83","75","","","","","","","","","","","","","","","",""
"null","audio/beep-329314.mp3","null","audio-keyboard-response","323","2.1.0","366266","J=YES, F=NO","wkc8pmvycv","2","79","83","75","","","","","","","","","","","","","","","",""
"null","audio/desire.wav","null","audio-keyboard-response","324","2.1.0","366855","J=YES, F=NO","wkc8pmvycv","2","79","83","75","","","","","","","","","","","","","","","",""
"406","
          <p id=""word"" style=""font-size: 40px;"">open</p>
          <p style=""font-size: 16px;"">J = YES &nbsp;&nbsp;&nbsp; F = NO</p>
        ","j","html-keyboard-response","325","2.1.0","367263","J=YES, F=NO","wkc8pmvycv","2","79","83","75","","","","","","","","","open","desire","unrelated","experimental","j","true","",""
"null","<p style=""font-size: 50px;"">+</p>","null","html-keyboard-response","326","2.1.0","367572","J=YES, F=NO","wkc8pmvycv","2","79","83","75","","","","","","","","","","","","","","","",""
"null","audio/beep-329314.mp3","null","audio-keyboard-response","327","2.1.0","369106","J=YES, F=NO","wkc8pmvycv","2","79","83","75","","","","","","","","","","","","","","","",""
"null","audio/emotion.wav","null","audio-keyboard-response","328","2.1.0","369995","J=YES, F=NO","wkc8pmvycv","2","79","83","75","","","","","","","","","","","","","","","",""
"846","
          <p id=""word"" style=""font-size: 40px;"">devering</p>
          <p style=""font-size: 16px;"">J = YES &nbsp;&nbsp;&nbsp; F = NO</p>
        ","f","html-keyboard-response","329","2.1.0","370844","J=YES, F=NO","wkc8pmvycv","2","79","83","75","","","","","","","","","devering","emotion","pseudoword","pseudoword","f","true","",""
"null","<p style=""font-size: 50px;"">+</p>","null","html-keyboard-response","330","2.1.0","371161","J=YES, F=NO","wkc8pmvycv","2","79","83","75","","","","","","","","","","","","","","","",""
"null","audio/beep-329314.mp3","null","audio-keyboard-response","331","2.1.0","372686","J=YES, F=NO","wkc8pmvycv","2","79","83","75","","","","","","","","","","","","","","","",""
"null","audio/sugar1.wav","null","audio-keyboard-response","332","2.1.0","373216","J=YES, F=NO","wkc8pmvycv","2","79","83","75","","","","","","","","","","","","","","","",""
"664","
          <p id=""word"" style=""font-size: 40px;"">glung</p>
          <p style=""font-size: 16px;"">J = YES &nbsp;&nbsp;&nbsp; F = NO</p>
        ","f","html-keyboard-response","333","2.1.0","373882","J=YES, F=NO","wkc8pmvycv","2","79","83","75","","","","","","","","","glung","sugar1","pseudoword","pseudoword","f","true","",""
"null","<p style=""font-size: 50px;"">+</p>","null","html-keyboard-response","334","2.1.0","374188","J=YES, F=NO","wkc8pmvycv","2","79","83","75","","","","","","","","","","","","","","","",""
"null","audio/beep-329314.mp3","null","audio-keyboard-response","335","2.1.0","375724","J=YES, F=NO","wkc8pmvycv","2","79","83","75","","","","","","","","","","","","","","","",""
"null","audio/show.wav","null","audio-keyboard-response","336","2.1.0","376254","J=YES, F=NO","wkc8pmvycv","2","79","83","75","","","","","","","","","","","","","","","",""
"696","
          <p id=""word"" style=""font-size: 40px;"">smark</p>
          <p style=""font-size: 16px;"">J = YES &nbsp;&nbsp;&nbsp; F = NO</p>
        ","j","html-keyboard-response","337","2.1.0","376952","J=YES, F=NO","wkc8pmvycv","2","79","83","75","","","","","","","","","smark","show","pseudoword","pseudoword","f","false","",""
"null","<p style=""font-size: 50px;"">+</p>","null","html-keyboard-response","338","2.1.0","377267","J=YES, F=NO","wkc8pmvycv","2","79","83","75","","","","","","","","","","","","","","","",""
"null","audio/beep-329314.mp3","null","audio-keyboard-response","339","2.1.0","378806","J=YES, F=NO","wkc8pmvycv","2","79","83","75","","","","","","","","","","","","","","","",""
"null","audio/strength.wav","null","audio-keyboard-response","340","2.1.0","379515","J=YES, F=NO","wkc8pmvycv","2","79","83","75","","","","","","","","","","","","","","","",""
"524","
          <p id=""word"" style=""font-size: 40px;"">possess</p>
          <p style=""font-size: 16px;"">J = YES &nbsp;&nbsp;&nbsp; F = NO</p>
        ","j","html-keyboard-response","341","2.1.0","380041","J=YES, F=NO","wkc8pmvycv","2","79","83","75","","","","","","","","","possess","strength","metaphor","experimental","j","true","",""
"null","<p style=""font-size: 50px;"">+</p>","null","html-keyboard-response","342","2.1.0","380352","J=YES, F=NO","wkc8pmvycv","2","79","83","75","","","","","","","","","","","","","","","",""
"null","audio/beep-329314.mp3","null","audio-keyboard-response","343","2.1.0","381885","J=YES, F=NO","wkc8pmvycv","2","79","83","75","","","","","","","","","","","","","","","",""
"null","audio/tax1.wav","null","audio-keyboard-response","344","2.1.0","382476","J=YES, F=NO","wkc8pmvycv","2","79","83","75","","","","","","","","","","","","","","","",""
"591","
          <p id=""word"" style=""font-size: 40px;"">snate</p>
          <p style=""font-size: 16px;"">J = YES &nbsp;&nbsp;&nbsp; F = NO</p>
        ","f","html-keyboard-response","345","2.1.0","383069","J=YES, F=NO","wkc8pmvycv","2","79","83","75","","","","","","","","","snate","tax1","pseudoword","pseudoword","f","true","",""
"null","<p style=""font-size: 50px;"">+</p>","null","html-keyboard-response","346","2.1.0","383372","J=YES, F=NO","wkc8pmvycv","2","79","83","75","","","","","","","","","","","","","","","",""
"null","audio/beep-329314.mp3","null","audio-keyboard-response","347","2.1.0","384906","J=YES, F=NO","wkc8pmvycv","2","79","83","75","","","","","","","","","","","","","","","",""
"null","audio/story.wav","null","audio-keyboard-response","348","2.1.0","385636","J=YES, F=NO","wkc8pmvycv","2","79","83","75","","","","","","","","","","","","","","","",""
"553","
          <p id=""word"" style=""font-size: 40px;"">cover</p>
          <p style=""font-size: 16px;"">J = YES &nbsp;&nbsp;&nbsp; F = NO</p>
        ","j","html-keyboard-response","349","2.1.0","386191","J=YES, F=NO","wkc8pmvycv","2","79","83","75","","","","","","","","","cover","story","metaphor","experimental","j","true","",""
"null","<p style=""font-size: 50px;"">+</p>","null","html-keyboard-response","350","2.1.0","386507","J=YES, F=NO","wkc8pmvycv","2","79","83","75","","","","","","","","","","","","","","","",""
"null","audio/beep-329314.mp3","null","audio-keyboard-response","351","2.1.0","388044","J=YES, F=NO","wkc8pmvycv","2","79","83","75","","","","","","","","","","","","","","","",""
"null","audio/cancer1.wav","null","audio-keyboard-response","352","2.1.0","388736","J=YES, F=NO","wkc8pmvycv","2","79","83","75","","","","","","","","","","","","","","","",""
"495","
          <p id=""word"" style=""font-size: 40px;"">draw</p>
          <p style=""font-size: 16px;"">J = YES &nbsp;&nbsp;&nbsp; F = NO</p>
        ","j","html-keyboard-response","353","2.1.0","389233","J=YES, F=NO","wkc8pmvycv","2","79","83","75","","","","","","","","","draw","cancer1","filler","filler","j","true","",""
"null","<p style=""font-size: 50px;"">+</p>","null","html-keyboard-response","354","2.1.0","389550","J=YES, F=NO","wkc8pmvycv","2","79","83","75","","","","","","","","","","","","","","","",""
"null","audio/beep-329314.mp3","null","audio-keyboard-response","355","2.1.0","391086","J=YES, F=NO","wkc8pmvycv","2","79","83","75","","","","","","","","","","","","","","","",""
"null","audio/breath.wav","null","audio-keyboard-response","356","2.1.0","391716","J=YES, F=NO","wkc8pmvycv","2","79","83","75","","","","","","","","","","","","","","","",""
"563","
          <p id=""word"" style=""font-size: 40px;"">pack</p>
          <p style=""font-size: 16px;"">J = YES &nbsp;&nbsp;&nbsp; F = NO</p>
        ","j","html-keyboard-response","357","2.1.0","392280","J=YES, F=NO","wkc8pmvycv","2","79","83","75","","","","","","","","","pack","breath","filler","filler","j","true","",""
"null","<p style=""font-size: 50px;"">+</p>","null","html-keyboard-response","358","2.1.0","392586","J=YES, F=NO","wkc8pmvycv","2","79","83","75","","","","","","","","","","","","","","","",""
"null","audio/beep-329314.mp3","null","audio-keyboard-response","359","2.1.0","394126","J=YES, F=NO","wkc8pmvycv","2","79","83","75","","","","","","","","","","","","","","","",""
"null","audio/pain1.wav","null","audio-keyboard-response","360","2.1.0","394595","J=YES, F=NO","wkc8pmvycv","2","79","83","75","","","","","","","","","","","","","","","",""
"661","
          <p id=""word"" style=""font-size: 40px;"">tritted</p>
          <p style=""font-size: 16px;"">J = YES &nbsp;&nbsp;&nbsp; F = NO</p>
        ","f","html-keyboard-response","361","2.1.0","395258","J=YES, F=NO","wkc8pmvycv","2","79","83","75","","","","","","","","","tritted","pain1","pseudoword","pseudoword","f","true","",""
"1078","<p>Excellent! You have finished block 3 of 8.</p>
                     <p>Feel free to take a 30 second break.</p>
                     <p>Press any key when you're ready to continue.</p>"," ","html-keyboard-response","362","2.1.0","396338","J=YES, F=NO","wkc8pmvycv","2","79","83","75","","","","","","","","","","","","","","","",""
"775","<p>Starting main block 4 of 8. Press any key to continue.</p>"," ","html-keyboard-response","363","2.1.0","397115","J=YES, F=NO","wkc8pmvycv","2","79","83","75","","","","","","","","","","","","","","","",""
"null","<p style=""font-size: 50px;"">+</p>","null","html-keyboard-response","364","2.1.0","397418","J=YES, F=NO","wkc8pmvycv","2","79","83","75","","","","","","","","","","","","","","","",""
"null","audio/beep-329314.mp3","null","audio-keyboard-response","365","2.1.0","398946","J=YES, F=NO","wkc8pmvycv","2","79","83","75","","","","","","","","","","","","","","","",""
"null","audio/butter1.wav","null","audio-keyboard-response","366","2.1.0","399635","J=YES, F=NO","wkc8pmvycv","2","79","83","75","","","","","","","","","","","","","","","",""
"470","
          <p id=""word"" style=""font-size: 40px;"">chew</p>
          <p style=""font-size: 16px;"">J = YES &nbsp;&nbsp;&nbsp; F = NO</p>
        ","j","html-keyboard-response","367","2.1.0","400107","J=YES, F=NO","wkc8pmvycv","2","79","83","75","","","","","","","","","chew","butter1","filler","filler","j","true","",""
"null","<p style=""font-size: 50px;"">+</p>","null","html-keyboard-response","368","2.1.0","400419","J=YES, F=NO","wkc8pmvycv","2","79","83","75","","","","","","","","","","","","","","","",""
"null","audio/beep-329314.mp3","null","audio-keyboard-response","369","2.1.0","401946","J=YES, F=NO","wkc8pmvycv","2","79","83","75","","","","","","","","","","","","","","","",""
"null","audio/camp.wav","null","audio-keyboard-response","370","2.1.0","402556","J=YES, F=NO","wkc8pmvycv","2","79","83","75","","","","","","","","","","","","","","","",""
"499","
          <p id=""word"" style=""font-size: 40px;"">touch</p>
          <p style=""font-size: 16px;"">J = YES &nbsp;&nbsp;&nbsp; F = NO</p>
        ","j","html-keyboard-response","371","2.1.0","403056","J=YES, F=NO","wkc8pmvycv","2","79","83","75","","","","","","","","","touch","camp","unrelated","experimental","j","true","",""
"null","<p style=""font-size: 50px;"">+</p>","null","html-keyboard-response","372","2.1.0","403361","J=YES, F=NO","wkc8pmvycv","2","79","83","75","","","","","","","","","","","","","","","",""
"null","audio/beep-329314.mp3","null","audio-keyboard-response","373","2.1.0","404886","J=YES, F=NO","wkc8pmvycv","2","79","83","75","","","","","","","","","","","","","","","",""
"null","audio/bush1.wav","null","audio-keyboard-response","374","2.1.0","405514","J=YES, F=NO","wkc8pmvycv","2","79","83","75","","","","","","","","","","","","","","","",""
"538","
          <p id=""word"" style=""font-size: 40px;"">run</p>
          <p style=""font-size: 16px;"">J = YES &nbsp;&nbsp;&nbsp; F = NO</p>
        ","j","html-keyboard-response","375","2.1.0","406053","J=YES, F=NO","wkc8pmvycv","2","79","83","75","","","","","","","","","run","bush1","unrelated","experimental","j","true","",""
"null","<p style=""font-size: 50px;"">+</p>","null","html-keyboard-response","376","2.1.0","406358","J=YES, F=NO","wkc8pmvycv","2","79","83","75","","","","","","","","","","","","","","","",""
"null","audio/beep-329314.mp3","null","audio-keyboard-response","377","2.1.0","407886","J=YES, F=NO","wkc8pmvycv","2","79","83","75","","","","","","","","","","","","","","","",""
"null","audio/test1.wav","null","audio-keyboard-response","378","2.1.0","408675","J=YES, F=NO","wkc8pmvycv","2","79","83","75","","","","","","","","","","","","","","","",""
"539","
          <p id=""word"" style=""font-size: 40px;"">twopch</p>
          <p style=""font-size: 16px;"">J = YES &nbsp;&nbsp;&nbsp; F = NO</p>
        ","f","html-keyboard-response","379","2.1.0","409215","J=YES, F=NO","wkc8pmvycv","2","79","83","75","","","","","","","","","twopch","test1","pseudoword","pseudoword","f","true","",""
"null","<p style=""font-size: 50px;"">+</p>","null","html-keyboard-response","380","2.1.0","409532","J=YES, F=NO","wkc8pmvycv","2","79","83","75","","","","","","","","","","","","","","","",""
"null","audio/beep-329314.mp3","null","audio-keyboard-response","381","2.1.0","411066","J=YES, F=NO","wkc8pmvycv","2","79","83","75","","","","","","","","","","","","","","","",""
"null","audio/weight1.wav","null","audio-keyboard-response","382","2.1.0","411574","J=YES, F=NO","wkc8pmvycv","2","79","83","75","","","","","","","","","","","","","","","",""
"637","
          <p id=""word"" style=""font-size: 40px;"">crimsh</p>
          <p style=""font-size: 16px;"">J = YES &nbsp;&nbsp;&nbsp; F = NO</p>
        ","f","html-keyboard-response","383","2.1.0","412212","J=YES, F=NO","wkc8pmvycv","2","79","83","75","","","","","","","","","crimsh","weight1","pseudoword","pseudoword","f","true","",""
"null","<p style=""font-size: 50px;"">+</p>","null","html-keyboard-response","384","2.1.0","412525","J=YES, F=NO","wkc8pmvycv","2","79","83","75","","","","","","","","","","","","","","","",""
"null","audio/beep-329314.mp3","null","audio-keyboard-response","385","2.1.0","414066","J=YES, F=NO","wkc8pmvycv","2","79","83","75","","","","","","","","","","","","","","","",""
"null","audio/mouth1.wav","null","audio-keyboard-response","386","2.1.0","414795","J=YES, F=NO","wkc8pmvycv","2","79","83","75","","","","","","","","","","","","","","","",""
"652","
          <p id=""word"" style=""font-size: 40px;"">spolial</p>
          <p style=""font-size: 16px;"">J = YES &nbsp;&nbsp;&nbsp; F = NO</p>
        ","f","html-keyboard-response","387","2.1.0","415450","J=YES, F=NO","wkc8pmvycv","2","79","83","75","","","","","","","","","spolial","mouth1","pseudoword","pseudoword","f","true","",""
"null","<p style=""font-size: 50px;"">+</p>","null","html-keyboard-response","388","2.1.0","415758","J=YES, F=NO","wkc8pmvycv","2","79","83","75","","","","","","","","","","","","","","","",""
"null","audio/beep-329314.mp3","null","audio-keyboard-response","389","2.1.0","417286","J=YES, F=NO","wkc8pmvycv","2","79","83","75","","","","","","","","","","","","","","","",""
"null","audio/train.wav","null","audio-keyboard-response","390","2.1.0","417855","J=YES, F=NO","wkc8pmvycv","2","79","83","75","","","","","","","","","","","","","","","",""
"529","
          <p id=""word"" style=""font-size: 40px;"">catch</p>
          <p style=""font-size: 16px;"">J = YES &nbsp;&nbsp;&nbsp; F = NO</p>
        ","j","html-keyboard-response","391","2.1.0","418386","J=YES, F=NO","wkc8pmvycv","2","79","83","75","","","","","","","","","catch","train","metaphor","experimental","j","true","",""
