"rt","stimulus","response","trial_type","trial_index","plugin_version","time_elapsed","response_mapping","subject_id","list_index","lextale_score","lextale_word_score","lextale_nonword_score","success","timeout","failed_images","failed_audio","failed_video","task","isWord","isDummy","target","prime","prime_type","stimulus_type","correct_response","correct","section","question_order"
"52517","
    <div style=""max-width: 800px; margin: auto; text-align: left;"">
      <h2>STANFORD UNIVERSITY</h2>
      <h3>Research Information Sheet</h3>
      <p><strong>Protocol Director:</strong> Robert Hawkins<br>
      <strong>Protocol Title:</strong> Communication and social cognition in natural audiovisual contexts<br>
      <strong>IRB#:</strong> 77226</p>

      <p><strong>DESCRIPTION:</strong> You are invited to participate in a research study about language and communication. The purpose of the research is to understand how you interact and communicate with other people in naturalistic settings as a fluent English speaker. This research will be conducted through the Prolific platform, including participants from the US, UK, and Canada. If you decide to participate in this research, you will play a communication game in a group with one or more partners.</p>

      <p><strong>TIME INVOLVEMENT:</strong> The task will last the amount of time advertised on Prolific. You are free to withdraw from the study at any time.</p>

      <p><strong>RISKS AND BENEFITS:</strong> You may become frustrated if your partner gets distracted, or experience discomfort if other participants in your group send text that is inappropriate for the task. We ask you to please be respectful of other participants you might be interacting with to mitigate these risks. You may also experience discomfort when being asked to discuss or challenge emotionally salient political beliefs. Study data will be stored securely, in compliance with Stanford University standards, minimizing the risk of confidentiality breach. This study advances our scientific understanding of how people communicate and collaborate in naturalistic settings. This study may lead to further insights about what can go wrong in teamwork, suggest potential interventions to overcome these barriers, and help to develop assistive technologies that collaborate with human partners. We cannot and do not guarantee or promise that you will receive any benefits from this study.</p>

      <p><strong>PAYMENTS:</strong> You will receive payment in the amount advertised on Prolific. If you do not complete this study, you will receive prorated payment based on the time that you have spent. Additionally, you may be eligible for bonus payments as described in the instructions.</p>

      <p><strong>PARTICIPANT’S RIGHTS:</strong> If you have read this form and have decided to participate in this project, please understand your participation is voluntary and you have the right to withdraw your consent or discontinue participation at any time without penalty or loss of benefits to which you are otherwise entitled. The alternative is not to participate. You have the right to refuse to answer particular questions. The results of this research study may be presented at scientific or professional meetings or published in scientific journals. Your individual privacy will be maintained in all published and written data resulting from the study. In accordance with scientific norms, the data from this study may be used or shared with other researchers for future research (after removing personally identifying information) without additional consent from you.</p>

      <p><strong>CONTACT INFORMATION:</strong><br>
      Questions: If you have any questions, concerns or complaints about this research, its procedures, risks and benefits, contact the Protocol Director, Robert Hawkins (<a href=""mailto:rdhawkins@stanford.edu"">rdhawkins@stanford.edu</a>, 217-549-6923).<br>
      Independent Contact: If you are not satisfied with how this study is being conducted, or if you have any concerns, complaints, or general questions about the research or your rights as a participant, please contact the Stanford Institutional Review Board (IRB) to speak to someone independent of the research team at 650-723-2480 or toll free at 1-866-680-2906, or email at <a href=""mailto:irbnon-med@stanford.edu"">irbnon-med@stanford.edu</a>. You can also write to the Stanford IRB, Stanford University, 1705 El Camino Real, Palo Alto, CA 94306.</p>

      <p><strong>Please save or print a copy of this page for your records.</strong></p>
      <p>If you agree to participate in this research, click ""Continue"" below.</p>
    </div>
  ","0","html-button-response","0","2.1.0","52531","J=YES, F=NO","wlr3l68nrc","2","85","85","85","","","","","","","","","","","","","","","",""
"10501","
    <div style=""max-width: 800px; margin: auto; text-align: left;"">
      <h2>Welcome!</h2>
      <p>Thank you for participating in this study. The experiment consists of three parts:</p>
      <ol>
        <li>An English vocabulary test</li>
        <li>A main task in which you will hear and see words, and decide whether the written word is a real English word</li>
        <li>A brief survey about your background</li>
      </ol>
      <p>Each part will be introduced before it begins.</p>
      <p>Please make sure you are in a quiet environment and can hear audio clearly for the final task.</p>
      <p style=""margin-top: 2em;"">Press any key to begin.</p>
    </div>
  "," ","html-keyboard-response","1","2.1.0","63036","J=YES, F=NO","wlr3l68nrc","2","85","85","85","","","","","","","","","","","","","","","",""
"","","","preload","2","2.1.0","64855","J=YES, F=NO","wlr3l68nrc","2","85","85","85","true","false","[]","[]","[]","","","","","","","","","","",""
"6335","
    <div style=""max-width: 800px; margin: auto; text-align: left;"">
      <h2>Part 1: Vocabulary Test</h2>
      <p>You will now complete the first part of the study: a short English vocabulary test.</p>
      <p>This test is called <strong>LexTALE</strong> and helps us get a general sense of your English proficiency.</p>
      <p style=""margin-top: 2em;"">Press any key to continue.</p>
    </div>
  "," ","html-keyboard-response","3","2.1.0","71192","J=YES, F=NO","wlr3l68nrc","2","85","85","85","","","","","","","","","","","","","","","",""
"15570","
    <div style=""max-width: 800px; margin: auto; text-align: left;"">
      <h2>LexTALE Vocabulary Test</h2>
      <p>In this test, you will see a series of letter strings—one at a time.</p>
      <p>Your task is to decide whether each string is a real English word.</p>
      <p><strong>Key responses:</strong></p>
      <ul>
        <li><strong>J</strong> = YES (real English word)</li>
        <li><strong>F</strong> = NO (not a real English word)</li>
      </ul>
      <p>There is no time limit, but please try to be accurate.</p>
      <p style=""margin-top: 2em;"">Press any key to begin.</p>
    </div>
  "," ","html-keyboard-response","4","2.1.0","86764","J=YES, F=NO","wlr3l68nrc","2","85","85","85","","","","","","","","","","","","","","","",""
"50550","
  <p style=""font-size: 40px;"">platery</p>
  <p style=""font-size: 16px;"">J = YES &nbsp;&nbsp;&nbsp; F = NO</p>
","f","html-keyboard-response","5","2.1.0","137317","J=YES, F=NO","wlr3l68nrc","2","85","85","85","","","","","","lextale","false","true","","","","","","","",""
"2482","
  <p style=""font-size: 40px;"">denial</p>
  <p style=""font-size: 16px;"">J = YES &nbsp;&nbsp;&nbsp; F = NO</p>
","j","html-keyboard-response","6","2.1.0","139801","J=YES, F=NO","wlr3l68nrc","2","85","85","85","","","","","","lextale","true","true","","","","","","","",""
"1675","
  <p style=""font-size: 40px;"">marrit</p>
  <p style=""font-size: 16px;"">J = YES &nbsp;&nbsp;&nbsp; F = NO</p>
","f","html-keyboard-response","7","2.1.0","141477","J=YES, F=NO","wlr3l68nrc","2","85","85","85","","","","","","lextale","false","true","","","","","","","",""
"2932","
  <p style=""font-size: 40px;"">bottle</p>
  <p style=""font-size: 16px;"">J = YES &nbsp;&nbsp;&nbsp; F = NO</p>
","j","html-keyboard-response","8","2.1.0","144411","J=YES, F=NO","wlr3l68nrc","2","85","85","85","","","","","","lextale","true","false","","","","","","","",""
"1370","
  <p style=""font-size: 40px;"">birst</p>
  <p style=""font-size: 16px;"">J = YES &nbsp;&nbsp;&nbsp; F = NO</p>
","f","html-keyboard-response","9","2.1.0","145783","J=YES, F=NO","wlr3l68nrc","2","85","85","85","","","","","","lextale","false","false","","","","","","","",""
"1277","
  <p style=""font-size: 40px;"">envy</p>
  <p style=""font-size: 16px;"">J = YES &nbsp;&nbsp;&nbsp; F = NO</p>
","j","html-keyboard-response","10","2.1.0","147062","J=YES, F=NO","wlr3l68nrc","2","85","85","85","","","","","","lextale","true","false","","","","","","","",""
"1988","
  <p style=""font-size: 40px;"">brang</p>
  <p style=""font-size: 16px;"">J = YES &nbsp;&nbsp;&nbsp; F = NO</p>
","f","html-keyboard-response","11","2.1.0","149051","J=YES, F=NO","wlr3l68nrc","2","85","85","85","","","","","","lextale","false","false","","","","","","","",""
"1096","
  <p style=""font-size: 40px;"">huge</p>
  <p style=""font-size: 16px;"">J = YES &nbsp;&nbsp;&nbsp; F = NO</p>
","j","html-keyboard-response","12","2.1.0","150148","J=YES, F=NO","wlr3l68nrc","2","85","85","85","","","","","","lextale","true","false","","","","","","","",""
"12432","
  <p style=""font-size: 40px;"">plove</p>
  <p style=""font-size: 16px;"">J = YES &nbsp;&nbsp;&nbsp; F = NO</p>
","f","html-keyboard-response","13","2.1.0","162581","J=YES, F=NO","wlr3l68nrc","2","85","85","85","","","","","","lextale","false","false","","","","","","","",""
"1049","
  <p style=""font-size: 40px;"">border</p>
  <p style=""font-size: 16px;"">J = YES &nbsp;&nbsp;&nbsp; F = NO</p>
","j","html-keyboard-response","14","2.1.0","163632","J=YES, F=NO","wlr3l68nrc","2","85","85","85","","","","","","lextale","true","false","","","","","","","",""
"1536","
  <p style=""font-size: 40px;"">flimsy</p>
  <p style=""font-size: 16px;"">J = YES &nbsp;&nbsp;&nbsp; F = NO</p>
","j","html-keyboard-response","15","2.1.0","165170","J=YES, F=NO","wlr3l68nrc","2","85","85","85","","","","","","lextale","true","false","","","","","","","",""
"898","
  <p style=""font-size: 40px;"">drain</p>
  <p style=""font-size: 16px;"">J = YES &nbsp;&nbsp;&nbsp; F = NO</p>
","j","html-keyboard-response","16","2.1.0","166070","J=YES, F=NO","wlr3l68nrc","2","85","85","85","","","","","","lextale","true","false","","","","","","","",""
"14350","
  <p style=""font-size: 40px;"">twindle</p>
  <p style=""font-size: 16px;"">J = YES &nbsp;&nbsp;&nbsp; F = NO</p>
","f","html-keyboard-response","17","2.1.0","180422","J=YES, F=NO","wlr3l68nrc","2","85","85","85","","","","","","lextale","false","false","","","","","","","",""
"2542","
  <p style=""font-size: 40px;"">propose</p>
  <p style=""font-size: 16px;"">J = YES &nbsp;&nbsp;&nbsp; F = NO</p>
","j","html-keyboard-response","18","2.1.0","182966","J=YES, F=NO","wlr3l68nrc","2","85","85","85","","","","","","lextale","true","false","","","","","","","",""
"2733","
  <p style=""font-size: 40px;"">forlay</p>
  <p style=""font-size: 16px;"">J = YES &nbsp;&nbsp;&nbsp; F = NO</p>
","f","html-keyboard-response","19","2.1.0","185700","J=YES, F=NO","wlr3l68nrc","2","85","85","85","","","","","","lextale","false","false","","","","","","","",""
"9004","
  <p style=""font-size: 40px;"">tenant</p>
  <p style=""font-size: 16px;"">J = YES &nbsp;&nbsp;&nbsp; F = NO</p>
","j","html-keyboard-response","20","2.1.0","194706","J=YES, F=NO","wlr3l68nrc","2","85","85","85","","","","","","lextale","true","false","","","","","","","",""
"1018","
  <p style=""font-size: 40px;"">strain</p>
  <p style=""font-size: 16px;"">J = YES &nbsp;&nbsp;&nbsp; F = NO</p>
","j","html-keyboard-response","21","2.1.0","195725","J=YES, F=NO","wlr3l68nrc","2","85","85","85","","","","","","lextale","true","false","","","","","","","",""
"1046","
  <p style=""font-size: 40px;"">holster</p>
  <p style=""font-size: 16px;"">J = YES &nbsp;&nbsp;&nbsp; F = NO</p>
","j","html-keyboard-response","22","2.1.0","196772","J=YES, F=NO","wlr3l68nrc","2","85","85","85","","","","","","lextale","true","false","","","","","","","",""
"7646","
  <p style=""font-size: 40px;"">hinder</p>
  <p style=""font-size: 16px;"">J = YES &nbsp;&nbsp;&nbsp; F = NO</p>
","j","html-keyboard-response","23","2.1.0","204420","J=YES, F=NO","wlr3l68nrc","2","85","85","85","","","","","","lextale","true","false","","","","","","","",""
"1326","
  <p style=""font-size: 40px;"">swindle</p>
  <p style=""font-size: 16px;"">J = YES &nbsp;&nbsp;&nbsp; F = NO</p>
","j","html-keyboard-response","24","2.1.0","205747","J=YES, F=NO","wlr3l68nrc","2","85","85","85","","","","","","lextale","true","false","","","","","","","",""
"1164","
  <p style=""font-size: 40px;"">nuder</p>
  <p style=""font-size: 16px;"">J = YES &nbsp;&nbsp;&nbsp; F = NO</p>
","f","html-keyboard-response","25","2.1.0","206912","J=YES, F=NO","wlr3l68nrc","2","85","85","85","","","","","","lextale","false","false","","","","","","","",""
"1013","
  <p style=""font-size: 40px;"">pillow</p>
  <p style=""font-size: 16px;"">J = YES &nbsp;&nbsp;&nbsp; F = NO</p>
","j","html-keyboard-response","26","2.1.0","207927","J=YES, F=NO","wlr3l68nrc","2","85","85","85","","","","","","lextale","true","false","","","","","","","",""
"16136","
  <p style=""font-size: 40px;"">shumble</p>
  <p style=""font-size: 16px;"">J = YES &nbsp;&nbsp;&nbsp; F = NO</p>
","f","html-keyboard-response","27","2.1.0","224065","J=YES, F=NO","wlr3l68nrc","2","85","85","85","","","","","","lextale","false","false","","","","","","","",""
"1117","
  <p style=""font-size: 40px;"">thirst</p>
  <p style=""font-size: 16px;"">J = YES &nbsp;&nbsp;&nbsp; F = NO</p>
","j","html-keyboard-response","28","2.1.0","225183","J=YES, F=NO","wlr3l68nrc","2","85","85","85","","","","","","lextale","true","false","","","","","","","",""
"6416","
  <p style=""font-size: 40px;"">unsail</p>
  <p style=""font-size: 16px;"">J = YES &nbsp;&nbsp;&nbsp; F = NO</p>
","f","html-keyboard-response","29","2.1.0","231601","J=YES, F=NO","wlr3l68nrc","2","85","85","85","","","","","","lextale","false","false","","","","","","","",""
"9030","
  <p style=""font-size: 40px;"">rifle</p>
  <p style=""font-size: 16px;"">J = YES &nbsp;&nbsp;&nbsp; F = NO</p>
","j","html-keyboard-response","30","2.1.0","240633","J=YES, F=NO","wlr3l68nrc","2","85","85","85","","","","","","lextale","true","false","","","","","","","",""
"850","
  <p style=""font-size: 40px;"">mush</p>
  <p style=""font-size: 16px;"">J = YES &nbsp;&nbsp;&nbsp; F = NO</p>
","j","html-keyboard-response","31","2.1.0","241484","J=YES, F=NO","wlr3l68nrc","2","85","85","85","","","","","","lextale","false","false","","","","","","","",""
"3741","
  <p style=""font-size: 40px;"">drench</p>
  <p style=""font-size: 16px;"">J = YES &nbsp;&nbsp;&nbsp; F = NO</p>
","j","html-keyboard-response","32","2.1.0","245227","J=YES, F=NO","wlr3l68nrc","2","85","85","85","","","","","","lextale","true","false","","","","","","","",""
"825","
  <p style=""font-size: 40px;"">snirt</p>
  <p style=""font-size: 16px;"">J = YES &nbsp;&nbsp;&nbsp; F = NO</p>
","f","html-keyboard-response","33","2.1.0","246054","J=YES, F=NO","wlr3l68nrc","2","85","85","85","","","","","","lextale","false","false","","","","","","","",""
"732","
  <p style=""font-size: 40px;"">bitter</p>
  <p style=""font-size: 16px;"">J = YES &nbsp;&nbsp;&nbsp; F = NO</p>
","j","html-keyboard-response","34","2.1.0","246787","J=YES, F=NO","wlr3l68nrc","2","85","85","85","","","","","","lextale","true","false","","","","","","","",""
"9627","
  <p style=""font-size: 40px;"">pliff</p>
  <p style=""font-size: 16px;"">J = YES &nbsp;&nbsp;&nbsp; F = NO</p>
","f","html-keyboard-response","35","2.1.0","256415","J=YES, F=NO","wlr3l68nrc","2","85","85","85","","","","","","lextale","false","false","","","","","","","",""
"726","
  <p style=""font-size: 40px;"">tablet</p>
  <p style=""font-size: 16px;"">J = YES &nbsp;&nbsp;&nbsp; F = NO</p>
","j","html-keyboard-response","36","2.1.0","257143","J=YES, F=NO","wlr3l68nrc","2","85","85","85","","","","","","lextale","true","false","","","","","","","",""
"1457","
  <p style=""font-size: 40px;"">glimmer</p>
  <p style=""font-size: 16px;"">J = YES &nbsp;&nbsp;&nbsp; F = NO</p>
","j","html-keyboard-response","37","2.1.0","258602","J=YES, F=NO","wlr3l68nrc","2","85","85","85","","","","","","lextale","true","false","","","","","","","",""
"6831","
  <p style=""font-size: 40px;"">slink</p>
  <p style=""font-size: 16px;"">J = YES &nbsp;&nbsp;&nbsp; F = NO</p>
","j","html-keyboard-response","38","2.1.0","265435","J=YES, F=NO","wlr3l68nrc","2","85","85","85","","","","","","lextale","true","false","","","","","","","",""
"2135","
  <p style=""font-size: 40px;"">clever</p>
  <p style=""font-size: 16px;"">J = YES &nbsp;&nbsp;&nbsp; F = NO</p>
","j","html-keyboard-response","39","2.1.0","267571","J=YES, F=NO","wlr3l68nrc","2","85","85","85","","","","","","lextale","true","false","","","","","","","",""
"985","
  <p style=""font-size: 40px;"">grum</p>
  <p style=""font-size: 16px;"">J = YES &nbsp;&nbsp;&nbsp; F = NO</p>
","f","html-keyboard-response","40","2.1.0","268558","J=YES, F=NO","wlr3l68nrc","2","85","85","85","","","","","","lextale","false","false","","","","","","","",""
"687","
  <p style=""font-size: 40px;"">string</p>
  <p style=""font-size: 16px;"">J = YES &nbsp;&nbsp;&nbsp; F = NO</p>
","j","html-keyboard-response","41","2.1.0","269247","J=YES, F=NO","wlr3l68nrc","2","85","85","85","","","","","","lextale","true","false","","","","","","","",""
"1354","
  <p style=""font-size: 40px;"">plim</p>
  <p style=""font-size: 16px;"">J = YES &nbsp;&nbsp;&nbsp; F = NO</p>
","f","html-keyboard-response","42","2.1.0","270602","J=YES, F=NO","wlr3l68nrc","2","85","85","85","","","","","","lextale","false","false","","","","","","","",""
"631","
  <p style=""font-size: 40px;"">cable</p>
  <p style=""font-size: 16px;"">J = YES &nbsp;&nbsp;&nbsp; F = NO</p>
","j","html-keyboard-response","43","2.1.0","271234","J=YES, F=NO","wlr3l68nrc","2","85","85","85","","","","","","lextale","true","false","","","","","","","",""
"1638","
  <p style=""font-size: 40px;"">shrivel</p>
  <p style=""font-size: 16px;"">J = YES &nbsp;&nbsp;&nbsp; F = NO</p>
","j","html-keyboard-response","44","2.1.0","272874","J=YES, F=NO","wlr3l68nrc","2","85","85","85","","","","","","lextale","true","false","","","","","","","",""
"1230","
  <p style=""font-size: 40px;"">tarnish</p>
  <p style=""font-size: 16px;"">J = YES &nbsp;&nbsp;&nbsp; F = NO</p>
","j","html-keyboard-response","45","2.1.0","274106","J=YES, F=NO","wlr3l68nrc","2","85","85","85","","","","","","lextale","true","false","","","","","","","",""
"886","
  <p style=""font-size: 40px;"">blim</p>
  <p style=""font-size: 16px;"">J = YES &nbsp;&nbsp;&nbsp; F = NO</p>
","f","html-keyboard-response","46","2.1.0","274994","J=YES, F=NO","wlr3l68nrc","2","85","85","85","","","","","","lextale","false","false","","","","","","","",""
"2420","
  <p style=""font-size: 40px;"">stifle</p>
  <p style=""font-size: 16px;"">J = YES &nbsp;&nbsp;&nbsp; F = NO</p>
","j","html-keyboard-response","47","2.1.0","277415","J=YES, F=NO","wlr3l68nrc","2","85","85","85","","","","","","lextale","true","false","","","","","","","",""
"1066","
  <p style=""font-size: 40px;"">bint</p>
  <p style=""font-size: 16px;"">J = YES &nbsp;&nbsp;&nbsp; F = NO</p>
","f","html-keyboard-response","48","2.1.0","278483","J=YES, F=NO","wlr3l68nrc","2","85","85","85","","","","","","lextale","false","false","","","","","","","",""
"716","
  <p style=""font-size: 40px;"">purple</p>
  <p style=""font-size: 16px;"">J = YES &nbsp;&nbsp;&nbsp; F = NO</p>
","j","html-keyboard-response","49","2.1.0","279200","J=YES, F=NO","wlr3l68nrc","2","85","85","85","","","","","","lextale","true","false","","","","","","","",""
"733","
  <p style=""font-size: 40px;"">wriggle</p>
  <p style=""font-size: 16px;"">J = YES &nbsp;&nbsp;&nbsp; F = NO</p>
","j","html-keyboard-response","50","2.1.0","279934","J=YES, F=NO","wlr3l68nrc","2","85","85","85","","","","","","lextale","true","false","","","","","","","",""
"8772","
  <p style=""font-size: 40px;"">mangle</p>
  <p style=""font-size: 16px;"">J = YES &nbsp;&nbsp;&nbsp; F = NO</p>
","j","html-keyboard-response","51","2.1.0","288707","J=YES, F=NO","wlr3l68nrc","2","85","85","85","","","","","","lextale","true","false","","","","","","","",""
"1155","
  <p style=""font-size: 40px;"">shramp</p>
  <p style=""font-size: 16px;"">J = YES &nbsp;&nbsp;&nbsp; F = NO</p>
","f","html-keyboard-response","52","2.1.0","289864","J=YES, F=NO","wlr3l68nrc","2","85","85","85","","","","","","lextale","false","false","","","","","","","",""
"815","
  <p style=""font-size: 40px;"">flirt</p>
  <p style=""font-size: 16px;"">J = YES &nbsp;&nbsp;&nbsp; F = NO</p>
","j","html-keyboard-response","53","2.1.0","290681","J=YES, F=NO","wlr3l68nrc","2","85","85","85","","","","","","lextale","true","false","","","","","","","",""
"986","
  <p style=""font-size: 40px;"">frip</p>
  <p style=""font-size: 16px;"">J = YES &nbsp;&nbsp;&nbsp; F = NO</p>
","f","html-keyboard-response","54","2.1.0","291668","J=YES, F=NO","wlr3l68nrc","2","85","85","85","","","","","","lextale","false","false","","","","","","","",""
"1260","
  <p style=""font-size: 40px;"">tangle</p>
  <p style=""font-size: 16px;"">J = YES &nbsp;&nbsp;&nbsp; F = NO</p>
","j","html-keyboard-response","55","2.1.0","292930","J=YES, F=NO","wlr3l68nrc","2","85","85","85","","","","","","lextale","true","false","","","","","","","",""
"726","
  <p style=""font-size: 40px;"">crumble</p>
  <p style=""font-size: 16px;"">J = YES &nbsp;&nbsp;&nbsp; F = NO</p>
","j","html-keyboard-response","56","2.1.0","293659","J=YES, F=NO","wlr3l68nrc","2","85","85","85","","","","","","lextale","true","false","","","","","","","",""
"4376","
  <p style=""font-size: 40px;"">wrinkle</p>
  <p style=""font-size: 16px;"">J = YES &nbsp;&nbsp;&nbsp; F = NO</p>
","j","html-keyboard-response","57","2.1.0","298037","J=YES, F=NO","wlr3l68nrc","2","85","85","85","","","","","","lextale","true","false","","","","","","","",""
"1548","
  <p style=""font-size: 40px;"">slumb</p>
  <p style=""font-size: 16px;"">J = YES &nbsp;&nbsp;&nbsp; F = NO</p>
","f","html-keyboard-response","58","2.1.0","299586","J=YES, F=NO","wlr3l68nrc","2","85","85","85","","","","","","lextale","false","false","","","","","","","",""
"641","
  <p style=""font-size: 40px;"">jungle</p>
  <p style=""font-size: 16px;"">J = YES &nbsp;&nbsp;&nbsp; F = NO</p>
","j","html-keyboard-response","59","2.1.0","300228","J=YES, F=NO","wlr3l68nrc","2","85","85","85","","","","","","lextale","true","false","","","","","","","",""
"1585","
  <p style=""font-size: 40px;"">frolick</p>
  <p style=""font-size: 16px;"">J = YES &nbsp;&nbsp;&nbsp; F = NO</p>
","j","html-keyboard-response","60","2.1.0","301814","J=YES, F=NO","wlr3l68nrc","2","85","85","85","","","","","","lextale","false","false","","","","","","","",""
"4412","
      <h2>LexTALE Test Completed</h2>
      <p>Your LexTALE vocabulary score is: <strong>85%</strong></p>
      <p>Press any key to continue.</p>
    "," ","html-keyboard-response","61","2.1.0","306229","J=YES, F=NO","wlr3l68nrc","2","85","85","85","","","","","","","","","","","","","","","",""
"3211","
    <div style=""max-width: 800px; margin: auto; text-align: left;"">
      <h2>Break Time</h2>
      <p>You have completed the first part of the study.</p>
      <p>You may take a short <strong>30-second break</strong> before continuing.</p>
      <p>When you’re ready, press any key to continue to the final task.</p>
    </div>
  "," ","html-keyboard-response","62","2.1.0","309441","J=YES, F=NO","wlr3l68nrc","2","85","85","85","","","","","","","","","","","","","","","",""
"28243","
    <div style=""max-width: 800px; margin: auto; text-align: left;"">
      <h2>Part 2: Lexical Decision Task</h2>
      <p>You will now begin the second part of the study.</p>
      <p>Each trial will follow this sequence:</p>
      <ul>
        <li>A fixation cross (+) appears at the center of the screen.</li>
        <li>You will hear a short beep followed by a spoken word.</li>
        <li>A written word will appear briefly on the screen.</li>
      </ul>
      <p>Your task is to judge whether the <strong>written word</strong> is a real English word.</p>
      <p style=""margin-top: 1em;""><strong>Key responses:</strong></p>
      <ul>
        <li><strong>J</strong> = YES (real English word)</li>
        <li><strong>F</strong> = NO (not a real English word)</li>
      </ul>
      <p>Please respond as quickly and accurately as you can.</p>
      <p style=""margin-top: 2em;"">Press any key to continue.</p>
    </div>
  "," ","html-keyboard-response","63","2.1.0","337685","J=YES, F=NO","wlr3l68nrc","2","85","85","85","","","","","","","","","","","","","","","",""
"6395","
    <div style=""max-width: 800px; margin: auto; text-align: left;"">
      <h2>Before You Begin</h2>
      <p>Make sure your sound is turned on.</p>
      <p>You will hear audio during each trial, but your decision should be based only on the <strong>written word</strong> you see on the screen.</p>
      <p><strong>Reminder:</strong></p>
      <ul>
        <li><strong>J</strong> = YES (real English word)</li>
        <li><strong>F</strong> = NO (not a real English word)</li>
      </ul>
      <p style=""margin-top: 2em;"">Press any key when you are ready to begin.</p>
    </div>
  "," ","html-keyboard-response","64","2.1.0","344083","J=YES, F=NO","wlr3l68nrc","2","85","85","85","","","","","","","","","","","","","","","",""
"2881","
    <div style=""max-width: 800px; margin: auto; text-align: left;"">
      <h2>Part 2: Practice Trials</h2>
      <p>You will now complete a few <strong>practice trials</strong> to get familiar with the task.</p>
      <p>These trials are <strong>not scored</strong> and are only to help you get used to the format.</p>
      <p style=""margin-top: 2em;"">Press any key to begin.</p>
    </div>
  "," ","html-keyboard-response","65","2.1.0","346965","J=YES, F=NO","wlr3l68nrc","2","85","85","85","","","","","","","","","","","","","","","",""
"1655","<p>Starting practice block 1 of 2. Press any key to continue.</p>"," ","html-keyboard-response","66","2.1.0","348622","J=YES, F=NO","wlr3l68nrc","2","85","85","85","","","","","","","","","","","","","","","",""
"null","<p style=""font-size: 50px;"">+</p>","null","html-keyboard-response","67","2.1.0","348940","J=YES, F=NO","wlr3l68nrc","2","85","85","85","","","","","","","","","","","","","","","",""
"null","audio/beep-329314.mp3","null","audio-keyboard-response","68","2.1.0","350549","J=YES, F=NO","wlr3l68nrc","2","85","85","85","","","","","","","","","","","","","","","",""
"null","audio/window1.wav","null","audio-keyboard-response","69","2.1.0","351209","J=YES, F=NO","wlr3l68nrc","2","85","85","85","","","","","","","","","","","","","","","",""
"null","
          <p id=""word"" style=""font-size: 40px;"">toss</p>
          <p style=""font-size: 16px;"">J = YES &nbsp;&nbsp;&nbsp; F = NO</p>
        ","null","html-keyboard-response","70","2.1.0","352724","J=YES, F=NO","wlr3l68nrc","2","85","85","85","","","","","","","","","toss","window1","filler","filler","j","false","",""
"null","<p style=""font-size: 50px;"">+</p>","null","html-keyboard-response","71","2.1.0","353041","J=YES, F=NO","wlr3l68nrc","2","85","85","85","","","","","","","","","","","","","","","",""
"null","audio/beep-329314.mp3","null","audio-keyboard-response","72","2.1.0","354569","J=YES, F=NO","wlr3l68nrc","2","85","85","85","","","","","","","","","","","","","","","",""
"null","audio/meal.wav","null","audio-keyboard-response","73","2.1.0","355049","J=YES, F=NO","wlr3l68nrc","2","85","85","85","","","","","","","","","","","","","","","",""
"819","
          <p id=""word"" style=""font-size: 40px;"">gallite</p>
          <p style=""font-size: 16px;"">J = YES &nbsp;&nbsp;&nbsp; F = NO</p>
        ","f","html-keyboard-response","74","2.1.0","355869","J=YES, F=NO","wlr3l68nrc","2","85","85","85","","","","","","","","","gallite","meal","pseudoword","pseudoword","f","true","",""
"null","<p style=""font-size: 50px;"">+</p>","null","html-keyboard-response","75","2.1.0","356174","J=YES, F=NO","wlr3l68nrc","2","85","85","85","","","","","","","","","","","","","","","",""
"null","audio/beep-329314.mp3","null","audio-keyboard-response","76","2.1.0","357710","J=YES, F=NO","wlr3l68nrc","2","85","85","85","","","","","","","","","","","","","","","",""
"null","audio/alarm1.wav","null","audio-keyboard-response","77","2.1.0","358329","J=YES, F=NO","wlr3l68nrc","2","85","85","85","","","","","","","","","","","","","","","",""
"644","
          <p id=""word"" style=""font-size: 40px;"">lock</p>
          <p style=""font-size: 16px;"">J = YES &nbsp;&nbsp;&nbsp; F = NO</p>
        ","j","html-keyboard-response","78","2.1.0","358976","J=YES, F=NO","wlr3l68nrc","2","85","85","85","","","","","","","","","lock","alarm1","filler","filler","j","true","",""
"null","<p style=""font-size: 50px;"">+</p>","null","html-keyboard-response","79","2.1.0","359290","J=YES, F=NO","wlr3l68nrc","2","85","85","85","","","","","","","","","","","","","","","",""
"null","audio/beep-329314.mp3","null","audio-keyboard-response","80","2.1.0","360829","J=YES, F=NO","wlr3l68nrc","2","85","85","85","","","","","","","","","","","","","","","",""
"null","audio/ego.wav","null","audio-keyboard-response","81","2.1.0","361409","J=YES, F=NO","wlr3l68nrc","2","85","85","85","","","","","","","","","","","","","","","",""
"null","
          <p id=""word"" style=""font-size: 40px;"">bruite</p>
          <p style=""font-size: 16px;"">J = YES &nbsp;&nbsp;&nbsp; F = NO</p>
        ","null","html-keyboard-response","82","2.1.0","362923","J=YES, F=NO","wlr3l68nrc","2","85","85","85","","","","","","","","","bruite","ego","pseudoword","pseudoword","f","false","",""
"null","<p style=""font-size: 50px;"">+</p>","null","html-keyboard-response","83","2.1.0","363241","J=YES, F=NO","wlr3l68nrc","2","85","85","85","","","","","","","","","","","","","","","",""
"null","audio/beep-329314.mp3","null","audio-keyboard-response","84","2.1.0","364769","J=YES, F=NO","wlr3l68nrc","2","85","85","85","","","","","","","","","","","","","","","",""
"null","audio/pig.wav","null","audio-keyboard-response","85","2.1.0","365169","J=YES, F=NO","wlr3l68nrc","2","85","85","85","","","","","","","","","","","","","","","",""
"null","
          <p id=""word"" style=""font-size: 40px;"">tirlike</p>
          <p style=""font-size: 16px;"">J = YES &nbsp;&nbsp;&nbsp; F = NO</p>
        ","null","html-keyboard-response","86","2.1.0","366674","J=YES, F=NO","wlr3l68nrc","2","85","85","85","","","","","","","","","tirlike","pig","pseudoword","pseudoword","f","false","",""
"null","<p style=""font-size: 50px;"">+</p>","null","html-keyboard-response","87","2.1.0","366976","J=YES, F=NO","wlr3l68nrc","2","85","85","85","","","","","","","","","","","","","","","",""
"null","audio/beep-329314.mp3","null","audio-keyboard-response","88","2.1.0","368510","J=YES, F=NO","wlr3l68nrc","2","85","85","85","","","","","","","","","","","","","","","",""
"null","audio/neck.wav","null","audio-keyboard-response","89","2.1.0","369089","J=YES, F=NO","wlr3l68nrc","2","85","85","85","","","","","","","","","","","","","","","",""
"849","
          <p id=""word"" style=""font-size: 40px;"">werling</p>
          <p style=""font-size: 16px;"">J = YES &nbsp;&nbsp;&nbsp; F = NO</p>
        ","j","html-keyboard-response","90","2.1.0","369939","J=YES, F=NO","wlr3l68nrc","2","85","85","85","","","","","","","","","werling","neck","pseudoword","pseudoword","f","false","",""
"null","<p style=""font-size: 50px;"">+</p>","null","html-keyboard-response","91","2.1.0","370257","J=YES, F=NO","wlr3l68nrc","2","85","85","85","","","","","","","","","","","","","","","",""
"null","audio/beep-329314.mp3","null","audio-keyboard-response","92","2.1.0","371788","J=YES, F=NO","wlr3l68nrc","2","85","85","85","","","","","","","","","","","","","","","",""
"null","audio/voice.wav","null","audio-keyboard-response","93","2.1.0","372549","J=YES, F=NO","wlr3l68nrc","2","85","85","85","","","","","","","","","","","","","","","",""
"875","
          <p id=""word"" style=""font-size: 40px;"">grintle</p>
          <p style=""font-size: 16px;"">J = YES &nbsp;&nbsp;&nbsp; F = NO</p>
        ","f","html-keyboard-response","94","2.1.0","373426","J=YES, F=NO","wlr3l68nrc","2","85","85","85","","","","","","","","","grintle","voice","pseudoword","pseudoword","f","true","",""
"null","<p style=""font-size: 50px;"">+</p>","null","html-keyboard-response","95","2.1.0","373740","J=YES, F=NO","wlr3l68nrc","2","85","85","85","","","","","","","","","","","","","","","",""
"null","audio/beep-329314.mp3","null","audio-keyboard-response","96","2.1.0","375269","J=YES, F=NO","wlr3l68nrc","2","85","85","85","","","","","","","","","","","","","","","",""
"null","audio/effort.wav","null","audio-keyboard-response","97","2.1.0","375909","J=YES, F=NO","wlr3l68nrc","2","85","85","85","","","","","","","","","","","","","","","",""
"700","
          <p id=""word"" style=""font-size: 40px;"">whonk</p>
          <p style=""font-size: 16px;"">J = YES &nbsp;&nbsp;&nbsp; F = NO</p>
        ","f","html-keyboard-response","98","2.1.0","376611","J=YES, F=NO","wlr3l68nrc","2","85","85","85","","","","","","","","","whonk","effort","pseudoword","pseudoword","f","true","",""
"null","<p style=""font-size: 50px;"">+</p>","null","html-keyboard-response","99","2.1.0","376923","J=YES, F=NO","wlr3l68nrc","2","85","85","85","","","","","","","","","","","","","","","",""
"null","audio/beep-329314.mp3","null","audio-keyboard-response","100","2.1.0","378449","J=YES, F=NO","wlr3l68nrc","2","85","85","85","","","","","","","","","","","","","","","",""
"null","audio/fence.wav","null","audio-keyboard-response","101","2.1.0","379149","J=YES, F=NO","wlr3l68nrc","2","85","85","85","","","","","","","","","","","","","","","",""
"646","
          <p id=""word"" style=""font-size: 40px;"">trim</p>
          <p style=""font-size: 16px;"">J = YES &nbsp;&nbsp;&nbsp; F = NO</p>
        ","j","html-keyboard-response","102","2.1.0","379796","J=YES, F=NO","wlr3l68nrc","2","85","85","85","","","","","","","","","trim","fence","filler","filler","j","true","",""
"null","<p style=""font-size: 50px;"">+</p>","null","html-keyboard-response","103","2.1.0","380106","J=YES, F=NO","wlr3l68nrc","2","85","85","85","","","","","","","","","","","","","","","",""
"null","audio/beep-329314.mp3","null","audio-keyboard-response","104","2.1.0","381649","J=YES, F=NO","wlr3l68nrc","2","85","85","85","","","","","","","","","","","","","","","",""
"null","audio/cinema1.wav","null","audio-keyboard-response","105","2.1.0","382289","J=YES, F=NO","wlr3l68nrc","2","85","85","85","","","","","","","","","","","","","","","",""
"648","
          <p id=""word"" style=""font-size: 40px;"">murple</p>
          <p style=""font-size: 16px;"">J = YES &nbsp;&nbsp;&nbsp; F = NO</p>
        ","f","html-keyboard-response","106","2.1.0","382938","J=YES, F=NO","wlr3l68nrc","2","85","85","85","","","","","","","","","murple","cinema1","pseudoword","pseudoword","f","true","",""
"null","<p style=""font-size: 50px;"">+</p>","null","html-keyboard-response","107","2.1.0","383256","J=YES, F=NO","wlr3l68nrc","2","85","85","85","","","","","","","","","","","","","","","",""
"null","audio/beep-329314.mp3","null","audio-keyboard-response","108","2.1.0","384789","J=YES, F=NO","wlr3l68nrc","2","85","85","85","","","","","","","","","","","","","","","",""
"null","audio/birth1.wav","null","audio-keyboard-response","109","2.1.0","385409","J=YES, F=NO","wlr3l68nrc","2","85","85","85","","","","","","","","","","","","","","","",""
"596","
          <p id=""word"" style=""font-size: 40px;"">peel</p>
          <p style=""font-size: 16px;"">J = YES &nbsp;&nbsp;&nbsp; F = NO</p>
        ","j","html-keyboard-response","110","2.1.0","386006","J=YES, F=NO","wlr3l68nrc","2","85","85","85","","","","","","","","","peel","birth1","filler","filler","j","true","",""
"null","<p style=""font-size: 50px;"">+</p>","null","html-keyboard-response","111","2.1.0","386323","J=YES, F=NO","wlr3l68nrc","2","85","85","85","","","","","","","","","","","","","","","",""
"null","audio/beep-329314.mp3","null","audio-keyboard-response","112","2.1.0","387849","J=YES, F=NO","wlr3l68nrc","2","85","85","85","","","","","","","","","","","","","","","",""
"null","audio/terrain.wav","null","audio-keyboard-response","113","2.1.0","388449","J=YES, F=NO","wlr3l68nrc","2","85","85","85","","","","","","","","","","","","","","","",""
"528","
          <p id=""word"" style=""font-size: 40px;"">twist</p>
          <p style=""font-size: 16px;"">J = YES &nbsp;&nbsp;&nbsp; F = NO</p>
        ","j","html-keyboard-response","114","2.1.0","388979","J=YES, F=NO","wlr3l68nrc","2","85","85","85","","","","","","","","","twist","terrain","filler","filler","j","true","",""
"2387","<p>Starting practice block 2 of 2. Press any key to continue.</p>"," ","html-keyboard-response","115","2.1.0","391367","J=YES, F=NO","wlr3l68nrc","2","85","85","85","","","","","","","","","","","","","","","",""
"null","<p style=""font-size: 50px;"">+</p>","null","html-keyboard-response","116","2.1.0","391673","J=YES, F=NO","wlr3l68nrc","2","85","85","85","","","","","","","","","","","","","","","",""
"null","audio/beep-329314.mp3","null","audio-keyboard-response","117","2.1.0","393209","J=YES, F=NO","wlr3l68nrc","2","85","85","85","","","","","","","","","","","","","","","",""
"null","audio/heart1.wav","null","audio-keyboard-response","118","2.1.0","393869","J=YES, F=NO","wlr3l68nrc","2","85","85","85","","","","","","","","","","","","","","","",""
"586","
          <p id=""word"" style=""font-size: 40px;"">dralm</p>
          <p style=""font-size: 16px;"">J = YES &nbsp;&nbsp;&nbsp; F = NO</p>
        ","f","html-keyboard-response","119","2.1.0","394457","J=YES, F=NO","wlr3l68nrc","2","85","85","85","","","","","","","","","dralm","heart1","pseudoword","pseudoword","f","true","",""
"null","<p style=""font-size: 50px;"">+</p>","null","html-keyboard-response","120","2.1.0","394773","J=YES, F=NO","wlr3l68nrc","2","85","85","85","","","","","","","","","","","","","","","",""
"null","audio/beep-329314.mp3","null","audio-keyboard-response","121","2.1.0","396309","J=YES, F=NO","wlr3l68nrc","2","85","85","85","","","","","","","","","","","","","","","",""
"null","audio/bridge.wav","null","audio-keyboard-response","122","2.1.0","396869","J=YES, F=NO","wlr3l68nrc","2","85","85","85","","","","","","","","","","","","","","","",""
"631","
          <p id=""word"" style=""font-size: 40px;"">crack</p>
          <p style=""font-size: 16px;"">J = YES &nbsp;&nbsp;&nbsp; F = NO</p>
        ","j","html-keyboard-response","123","2.1.0","397502","J=YES, F=NO","wlr3l68nrc","2","85","85","85","","","","","","","","","crack","bridge","filler","filler","j","true","",""
"null","<p style=""font-size: 50px;"">+</p>","null","html-keyboard-response","124","2.1.0","397806","J=YES, F=NO","wlr3l68nrc","2","85","85","85","","","","","","","","","","","","","","","",""
"null","audio/beep-329314.mp3","null","audio-keyboard-response","125","2.1.0","399328","J=YES, F=NO","wlr3l68nrc","2","85","85","85","","","","","","","","","","","","","","","",""
"null","audio/life1.wav","null","audio-keyboard-response","126","2.1.0","399929","J=YES, F=NO","wlr3l68nrc","2","85","85","85","","","","","","","","","","","","","","","",""
"777","
          <p id=""word"" style=""font-size: 40px;"">flimch</p>
          <p style=""font-size: 16px;"">J = YES &nbsp;&nbsp;&nbsp; F = NO</p>
        ","f","html-keyboard-response","127","2.1.0","400707","J=YES, F=NO","wlr3l68nrc","2","85","85","85","","","","","","","","","flimch","life1","pseudoword","pseudoword","f","true","",""
"null","<p style=""font-size: 50px;"">+</p>","null","html-keyboard-response","128","2.1.0","401023","J=YES, F=NO","wlr3l68nrc","2","85","85","85","","","","","","","","","","","","","","","",""
"null","audio/beep-329314.mp3","null","audio-keyboard-response","129","2.1.0","402549","J=YES, F=NO","wlr3l68nrc","2","85","85","85","","","","","","","","","","","","","","","",""
"null","audio/kettle1.wav","null","audio-keyboard-response","130","2.1.0","403068","J=YES, F=NO","wlr3l68nrc","2","85","85","85","","","","","","","","","","","","","","","",""
"522","
          <p id=""word"" style=""font-size: 40px;"">wrap</p>
          <p style=""font-size: 16px;"">J = YES &nbsp;&nbsp;&nbsp; F = NO</p>
        ","j","html-keyboard-response","131","2.1.0","403592","J=YES, F=NO","wlr3l68nrc","2","85","85","85","","","","","","","","","wrap","kettle1","filler","filler","j","true","",""
"null","<p style=""font-size: 50px;"">+</p>","null","html-keyboard-response","132","2.1.0","403895","J=YES, F=NO","wlr3l68nrc","2","85","85","85","","","","","","","","","","","","","","","",""
"null","audio/beep-329314.mp3","null","audio-keyboard-response","133","2.1.0","405429","J=YES, F=NO","wlr3l68nrc","2","85","85","85","","","","","","","","","","","","","","","",""
"null","audio/belief.wav","null","audio-keyboard-response","134","2.1.0","406109","J=YES, F=NO","wlr3l68nrc","2","85","85","85","","","","","","","","","","","","","","","",""
"511","
          <p id=""word"" style=""font-size: 40px;"">read</p>
          <p style=""font-size: 16px;"">J = YES &nbsp;&nbsp;&nbsp; F = NO</p>
        ","j","html-keyboard-response","135","2.1.0","406622","J=YES, F=NO","wlr3l68nrc","2","85","85","85","","","","","","","","","read","belief","filler","filler","j","true","",""
"null","<p style=""font-size: 50px;"">+</p>","null","html-keyboard-response","136","2.1.0","406924","J=YES, F=NO","wlr3l68nrc","2","85","85","85","","","","","","","","","","","","","","","",""
"null","audio/beep-329314.mp3","null","audio-keyboard-response","137","2.1.0","408449","J=YES, F=NO","wlr3l68nrc","2","85","85","85","","","","","","","","","","","","","","","",""
"null","audio/bishop1.wav","null","audio-keyboard-response","138","2.1.0","409069","J=YES, F=NO","wlr3l68nrc","2","85","85","85","","","","","","","","","","","","","","","",""
"432","
          <p id=""word"" style=""font-size: 40px;"">play</p>
          <p style=""font-size: 16px;"">J = YES &nbsp;&nbsp;&nbsp; F = NO</p>
        ","j","html-keyboard-response","139","2.1.0","409503","J=YES, F=NO","wlr3l68nrc","2","85","85","85","","","","","","","","","play","bishop1","filler","filler","j","true","",""
"null","<p style=""font-size: 50px;"">+</p>","null","html-keyboard-response","140","2.1.0","409806","J=YES, F=NO","wlr3l68nrc","2","85","85","85","","","","","","","","","","","","","","","",""
"null","audio/beep-329314.mp3","null","audio-keyboard-response","141","2.1.0","411329","J=YES, F=NO","wlr3l68nrc","2","85","85","85","","","","","","","","","","","","","","","",""
"null","audio/cash1.wav","null","audio-keyboard-response","142","2.1.0","411949","J=YES, F=NO","wlr3l68nrc","2","85","85","85","","","","","","","","","","","","","","","",""
"479","
          <p id=""word"" style=""font-size: 40px;"">splear</p>
          <p style=""font-size: 16px;"">J = YES &nbsp;&nbsp;&nbsp; F = NO</p>
        ","f","html-keyboard-response","143","2.1.0","412429","J=YES, F=NO","wlr3l68nrc","2","85","85","85","","","","","","","","","splear","cash1","pseudoword","pseudoword","f","true","",""
"null","<p style=""font-size: 50px;"">+</p>","null","html-keyboard-response","144","2.1.0","412739","J=YES, F=NO","wlr3l68nrc","2","85","85","85","","","","","","","","","","","","","","","",""
"null","audio/beep-329314.mp3","null","audio-keyboard-response","145","2.1.0","414269","J=YES, F=NO","wlr3l68nrc","2","85","85","85","","","","","","","","","","","","","","","",""
"null","audio/van1.wav","null","audio-keyboard-response","146","2.1.0","414809","J=YES, F=NO","wlr3l68nrc","2","85","85","85","","","","","","","","","","","","","","","",""
"421","
          <p id=""word"" style=""font-size: 40px;"">push</p>
          <p style=""font-size: 16px;"">J = YES &nbsp;&nbsp;&nbsp; F = NO</p>
        ","j","html-keyboard-response","147","2.1.0","415231","J=YES, F=NO","wlr3l68nrc","2","85","85","85","","","","","","","","","push","van1","filler","filler","j","true","",""
"null","<p style=""font-size: 50px;"">+</p>","null","html-keyboard-response","148","2.1.0","415537","J=YES, F=NO","wlr3l68nrc","2","85","85","85","","","","","","","","","","","","","","","",""
"null","audio/beep-329314.mp3","null","audio-keyboard-response","149","2.1.0","417069","J=YES, F=NO","wlr3l68nrc","2","85","85","85","","","","","","","","","","","","","","","",""
"null","audio/mind.wav","null","audio-keyboard-response","150","2.1.0","417649","J=YES, F=NO","wlr3l68nrc","2","85","85","85","","","","","","","","","","","","","","","",""
"632","
          <p id=""word"" style=""font-size: 40px;"">crainate</p>
          <p style=""font-size: 16px;"">J = YES &nbsp;&nbsp;&nbsp; F = NO</p>
        ","f","html-keyboard-response","151","2.1.0","418282","J=YES, F=NO","wlr3l68nrc","2","85","85","85","","","","","","","","","crainate","mind","pseudoword","pseudoword","f","true","",""
"null","<p style=""font-size: 50px;"">+</p>","null","html-keyboard-response","152","2.1.0","418588","J=YES, F=NO","wlr3l68nrc","2","85","85","85","","","","","","","","","","","","","","","",""
"null","audio/beep-329314.mp3","null","audio-keyboard-response","153","2.1.0","420129","J=YES, F=NO","wlr3l68nrc","2","85","85","85","","","","","","","","","","","","","","","",""
"null","audio/novel.wav","null","audio-keyboard-response","154","2.1.0","420649","J=YES, F=NO","wlr3l68nrc","2","85","85","85","","","","","","","","","","","","","","","",""
"485","
          <p id=""word"" style=""font-size: 40px;"">type</p>
          <p style=""font-size: 16px;"">J = YES &nbsp;&nbsp;&nbsp; F = NO</p>
        ","j","html-keyboard-response","155","2.1.0","421136","J=YES, F=NO","wlr3l68nrc","2","85","85","85","","","","","","","","","type","novel","filler","filler","j","true","",""
"null","<p style=""font-size: 50px;"">+</p>","null","html-keyboard-response","156","2.1.0","421438","J=YES, F=NO","wlr3l68nrc","2","85","85","85","","","","","","","","","","","","","","","",""
"null","audio/beep-329314.mp3","null","audio-keyboard-response","157","2.1.0","422969","J=YES, F=NO","wlr3l68nrc","2","85","85","85","","","","","","","","","","","","","","","",""
"null","audio/breath.wav","null","audio-keyboard-response","158","2.1.0","423549","J=YES, F=NO","wlr3l68nrc","2","85","85","85","","","","","","","","","","","","","","","",""
"608","
          <p id=""word"" style=""font-size: 40px;"">twets</p>
          <p style=""font-size: 16px;"">J = YES &nbsp;&nbsp;&nbsp; F = NO</p>
        ","f","html-keyboard-response","159","2.1.0","424158","J=YES, F=NO","wlr3l68nrc","2","85","85","85","","","","","","","","","twets","breath","pseudoword","pseudoword","f","true","",""
"null","<p style=""font-size: 50px;"">+</p>","null","html-keyboard-response","160","2.1.0","424472","J=YES, F=NO","wlr3l68nrc","2","85","85","85","","","","","","","","","","","","","","","",""
"null","audio/beep-329314.mp3","null","audio-keyboard-response","161","2.1.0","426009","J=YES, F=NO","wlr3l68nrc","2","85","85","85","","","","","","","","","","","","","","","",""
"null","audio/account1.wav","null","audio-keyboard-response","162","2.1.0","426729","J=YES, F=NO","wlr3l68nrc","2","85","85","85","","","","","","","","","","","","","","","",""
"549","
          <p id=""word"" style=""font-size: 40px;"">paint</p>
          <p style=""font-size: 16px;"">J = YES &nbsp;&nbsp;&nbsp; F = NO</p>
        ","j","html-keyboard-response","163","2.1.0","427279","J=YES, F=NO","wlr3l68nrc","2","85","85","85","","","","","","","","","paint","account1","filler","filler","j","true","",""
"3454","
    <div style=""max-width: 800px; margin: auto; text-align: left;"">
      <h2>Part 2: Main Trials</h2>
      <p>Great job on the practice trials!</p>
      <p>You will now begin the <strong>main set of trials</strong>.</p>
      <p>Remember your key assignments:</p>
      <ul>
        <li><strong>J</strong> = YES (real English word)</li>
        <li><strong>F</strong> = NO (not a real English word)</li>
      </ul>
      <p>Try to respond as <strong>quickly and accurately</strong> as possible.</p>
      <p style=""margin-top: 2em;"">Press any key to begin the main trials.</p>
    </div>
  "," ","html-keyboard-response","164","2.1.0","430735","J=YES, F=NO","wlr3l68nrc","2","85","85","85","","","","","","","","","","","","","","","",""
"2075","<p>Starting main block 1 of 8. Press any key to continue.</p>"," ","html-keyboard-response","165","2.1.0","432812","J=YES, F=NO","wlr3l68nrc","2","85","85","85","","","","","","","","","","","","","","","",""
"null","<p style=""font-size: 50px;"">+</p>","null","html-keyboard-response","166","2.1.0","433122","J=YES, F=NO","wlr3l68nrc","2","85","85","85","","","","","","","","","","","","","","","",""
"null","audio/beep-329314.mp3","null","audio-keyboard-response","167","2.1.0","434649","J=YES, F=NO","wlr3l68nrc","2","85","85","85","","","","","","","","","","","","","","","",""
"null","audio/floor.wav","null","audio-keyboard-response","168","2.1.0","435208","J=YES, F=NO","wlr3l68nrc","2","85","85","85","","","","","","","","","","","","","","","",""
"456","
          <p id=""word"" style=""font-size: 40px;"">mop</p>
          <p style=""font-size: 16px;"">J = YES &nbsp;&nbsp;&nbsp; F = NO</p>
        ","j","html-keyboard-response","169","2.1.0","435666","J=YES, F=NO","wlr3l68nrc","2","85","85","85","","","","","","","","","mop","floor","filler","filler","j","true","",""
"null","<p style=""font-size: 50px;"">+</p>","null","html-keyboard-response","170","2.1.0","435972","J=YES, F=NO","wlr3l68nrc","2","85","85","85","","","","","","","","","","","","","","","",""
"null","audio/beep-329314.mp3","null","audio-keyboard-response","171","2.1.0","437508","J=YES, F=NO","wlr3l68nrc","2","85","85","85","","","","","","","","","","","","","","","",""
"null","audio/rank1.wav","null","audio-keyboard-response","172","2.1.0","438109","J=YES, F=NO","wlr3l68nrc","2","85","85","85","","","","","","","","","","","","","","","",""
"527","
          <p id=""word"" style=""font-size: 40px;"">climb</p>
          <p style=""font-size: 16px;"">J = YES &nbsp;&nbsp;&nbsp; F = NO</p>
        ","j","html-keyboard-response","173","2.1.0","438637","J=YES, F=NO","wlr3l68nrc","2","85","85","85","","","","","","","","","climb","rank1","metaphor","experimental","j","true","",""
"null","<p style=""font-size: 50px;"">+</p>","null","html-keyboard-response","174","2.1.0","438955","J=YES, F=NO","wlr3l68nrc","2","85","85","85","","","","","","","","","","","","","","","",""
"null","audio/beep-329314.mp3","null","audio-keyboard-response","175","2.1.0","440489","J=YES, F=NO","wlr3l68nrc","2","85","85","85","","","","","","","","","","","","","","","",""
"null","audio/winter.wav","null","audio-keyboard-response","176","2.1.0","441088","J=YES, F=NO","wlr3l68nrc","2","85","85","85","","","","","","","","","","","","","","","",""
"444","
          <p id=""word"" style=""font-size: 40px;"">straven</p>
          <p style=""font-size: 16px;"">J = YES &nbsp;&nbsp;&nbsp; F = NO</p>
        ","f","html-keyboard-response","177","2.1.0","441534","J=YES, F=NO","wlr3l68nrc","2","85","85","85","","","","","","","","","straven","winter","pseudoword","pseudoword","f","true","",""
"null","<p style=""font-size: 50px;"">+</p>","null","html-keyboard-response","178","2.1.0","441837","J=YES, F=NO","wlr3l68nrc","2","85","85","85","","","","","","","","","","","","","","","",""
"null","audio/beep-329314.mp3","null","audio-keyboard-response","179","2.1.0","443369","J=YES, F=NO","wlr3l68nrc","2","85","85","85","","","","","","","","","","","","","","","",""
"null","audio/road.wav","null","audio-keyboard-response","180","2.1.0","443809","J=YES, F=NO","wlr3l68nrc","2","85","85","85","","","","","","","","","","","","","","","",""
"462","
          <p id=""word"" style=""font-size: 40px;"">wappings</p>
          <p style=""font-size: 16px;"">J = YES &nbsp;&nbsp;&nbsp; F = NO</p>
        ","j","html-keyboard-response","181","2.1.0","444273","J=YES, F=NO","wlr3l68nrc","2","85","85","85","","","","","","","","","wappings","road","pseudoword","pseudoword","f","false","",""
"null","<p style=""font-size: 50px;"">+</p>","null","html-keyboard-response","182","2.1.0","444587","J=YES, F=NO","wlr3l68nrc","2","85","85","85","","","","","","","","","","","","","","","",""
"null","audio/beep-329314.mp3","null","audio-keyboard-response","183","2.1.0","446128","J=YES, F=NO","wlr3l68nrc","2","85","85","85","","","","","","","","","","","","","","","",""
"null","audio/bush1.wav","null","audio-keyboard-response","184","2.1.0","446608","J=YES, F=NO","wlr3l68nrc","2","85","85","85","","","","","","","","","","","","","","","",""
"522","
          <p id=""word"" style=""font-size: 40px;"">platined</p>
          <p style=""font-size: 16px;"">J = YES &nbsp;&nbsp;&nbsp; F = NO</p>
        ","j","html-keyboard-response","185","2.1.0","447132","J=YES, F=NO","wlr3l68nrc","2","85","85","85","","","","","","","","","platined","bush1","pseudoword","pseudoword","f","false","",""
"null","<p style=""font-size: 50px;"">+</p>","null","html-keyboard-response","186","2.1.0","447437","J=YES, F=NO","wlr3l68nrc","2","85","85","85","","","","","","","","","","","","","","","",""
"null","audio/beep-329314.mp3","null","audio-keyboard-response","187","2.1.0","448969","J=YES, F=NO","wlr3l68nrc","2","85","85","85","","","","","","","","","","","","","","","",""
"null","audio/floor.wav","null","audio-keyboard-response","188","2.1.0","449508","J=YES, F=NO","wlr3l68nrc","2","85","85","85","","","","","","","","","","","","","","","",""
"513","
          <p id=""word"" style=""font-size: 40px;"">cover</p>
          <p style=""font-size: 16px;"">J = YES &nbsp;&nbsp;&nbsp; F = NO</p>
        ","j","html-keyboard-response","189","2.1.0","450023","J=YES, F=NO","wlr3l68nrc","2","85","85","85","","","","","","","","","cover","floor","literal","experimental","j","true","",""
"null","<p style=""font-size: 50px;"">+</p>","null","html-keyboard-response","190","2.1.0","450338","J=YES, F=NO","wlr3l68nrc","2","85","85","85","","","","","","","","","","","","","","","",""
"null","audio/beep-329314.mp3","null","audio-keyboard-response","191","2.1.0","451869","J=YES, F=NO","wlr3l68nrc","2","85","85","85","","","","","","","","","","","","","","","",""
"null","audio/mirror1.wav","null","audio-keyboard-response","192","2.1.0","452308","J=YES, F=NO","wlr3l68nrc","2","85","85","85","","","","","","","","","","","","","","","",""
"563","
          <p id=""word"" style=""font-size: 40px;"">fight</p>
          <p style=""font-size: 16px;"">J = YES &nbsp;&nbsp;&nbsp; F = NO</p>
        ","j","html-keyboard-response","193","2.1.0","452873","J=YES, F=NO","wlr3l68nrc","2","85","85","85","","","","","","","","","fight","mirror1","unrelated","experimental","j","true","",""
"null","<p style=""font-size: 50px;"">+</p>","null","html-keyboard-response","194","2.1.0","453187","J=YES, F=NO","wlr3l68nrc","2","85","85","85","","","","","","","","","","","","","","","",""
"null","audio/beep-329314.mp3","null","audio-keyboard-response","195","2.1.0","454729","J=YES, F=NO","wlr3l68nrc","2","85","85","85","","","","","","","","","","","","","","","",""
"null","audio/grass.wav","null","audio-keyboard-response","196","2.1.0","455409","J=YES, F=NO","wlr3l68nrc","2","85","85","85","","","","","","","","","","","","","","","",""
"793","
          <p id=""word"" style=""font-size: 40px;"">milames</p>
          <p style=""font-size: 16px;"">J = YES &nbsp;&nbsp;&nbsp; F = NO</p>
        ","f","html-keyboard-response","197","2.1.0","456204","J=YES, F=NO","wlr3l68nrc","2","85","85","85","","","","","","","","","milames","grass","pseudoword","pseudoword","f","true","",""
"null","<p style=""font-size: 50px;"">+</p>","null","html-keyboard-response","198","2.1.0","456521","J=YES, F=NO","wlr3l68nrc","2","85","85","85","","","","","","","","","","","","","","","",""
"null","audio/beep-329314.mp3","null","audio-keyboard-response","199","2.1.0","458048","J=YES, F=NO","wlr3l68nrc","2","85","85","85","","","","","","","","","","","","","","","",""
"null","audio/heart1.wav","null","audio-keyboard-response","200","2.1.0","458669","J=YES, F=NO","wlr3l68nrc","2","85","85","85","","","","","","","","","","","","","","","",""
"519","
          <p id=""word"" style=""font-size: 40px;"">touch</p>
          <p style=""font-size: 16px;"">J = YES &nbsp;&nbsp;&nbsp; F = NO</p>
        ","j","html-keyboard-response","201","2.1.0","459189","J=YES, F=NO","wlr3l68nrc","2","85","85","85","","","","","","","","","touch","heart1","metaphor","experimental","j","true","",""
"null","<p style=""font-size: 50px;"">+</p>","null","html-keyboard-response","202","2.1.0","459504","J=YES, F=NO","wlr3l68nrc","2","85","85","85","","","","","","","","","","","","","","","",""
"null","audio/beep-329314.mp3","null","audio-keyboard-response","203","2.1.0","461029","J=YES, F=NO","wlr3l68nrc","2","85","85","85","","","","","","","","","","","","","","","",""
"null","audio/gossip1.wav","null","audio-keyboard-response","204","2.1.0","461688","J=YES, F=NO","wlr3l68nrc","2","85","85","85","","","","","","","","","","","","","","","",""
"665","
          <p id=""word"" style=""font-size: 40px;"">camerish</p>
          <p style=""font-size: 16px;"">J = YES &nbsp;&nbsp;&nbsp; F = NO</p>
        ","f","html-keyboard-response","205","2.1.0","462355","J=YES, F=NO","wlr3l68nrc","2","85","85","85","","","","","","","","","camerish","gossip1","pseudoword","pseudoword","f","true","",""
"null","<p style=""font-size: 50px;"">+</p>","null","html-keyboard-response","206","2.1.0","462671","J=YES, F=NO","wlr3l68nrc","2","85","85","85","","","","","","","","","","","","","","","",""
"null","audio/beep-329314.mp3","null","audio-keyboard-response","207","2.1.0","464208","J=YES, F=NO","wlr3l68nrc","2","85","85","85","","","","","","","","","","","","","","","",""
"null","audio/brain.wav","null","audio-keyboard-response","208","2.1.0","464728","J=YES, F=NO","wlr3l68nrc","2","85","85","85","","","","","","","","","","","","","","","",""
"497","
          <p id=""word"" style=""font-size: 40px;"">throw</p>
          <p style=""font-size: 16px;"">J = YES &nbsp;&nbsp;&nbsp; F = NO</p>
        ","j","html-keyboard-response","209","2.1.0","465226","J=YES, F=NO","wlr3l68nrc","2","85","85","85","","","","","","","","","throw","brain","filler","filler","j","true","",""
"null","<p style=""font-size: 50px;"">+</p>","null","html-keyboard-response","210","2.1.0","465537","J=YES, F=NO","wlr3l68nrc","2","85","85","85","","","","","","","","","","","","","","","",""
"null","audio/beep-329314.mp3","null","audio-keyboard-response","211","2.1.0","467069","J=YES, F=NO","wlr3l68nrc","2","85","85","85","","","","","","","","","","","","","","","",""
"null","audio/burden.wav","null","audio-keyboard-response","212","2.1.0","467588","J=YES, F=NO","wlr3l68nrc","2","85","85","85","","","","","","","","","","","","","","","",""
"598","
          <p id=""word"" style=""font-size: 40px;"">whotth</p>
          <p style=""font-size: 16px;"">J = YES &nbsp;&nbsp;&nbsp; F = NO</p>
        ","f","html-keyboard-response","213","2.1.0","468189","J=YES, F=NO","wlr3l68nrc","2","85","85","85","","","","","","","","","whotth","burden","pseudoword","pseudoword","f","true","",""
"null","<p style=""font-size: 50px;"">+</p>","null","html-keyboard-response","214","2.1.0","468504","J=YES, F=NO","wlr3l68nrc","2","85","85","85","","","","","","","","","","","","","","","",""
"null","audio/beep-329314.mp3","null","audio-keyboard-response","215","2.1.0","470029","J=YES, F=NO","wlr3l68nrc","2","85","85","85","","","","","","","","","","","","","","","",""
"null","audio/ship.wav","null","audio-keyboard-response","216","2.1.0","470608","J=YES, F=NO","wlr3l68nrc","2","85","85","85","","","","","","","","","","","","","","","",""
"609","
          <p id=""word"" style=""font-size: 40px;"">scrap</p>
          <p style=""font-size: 16px;"">J = YES &nbsp;&nbsp;&nbsp; F = NO</p>
        ","j","html-keyboard-response","217","2.1.0","471219","J=YES, F=NO","wlr3l68nrc","2","85","85","85","","","","","","","","","scrap","ship","literal","experimental","j","true","",""
"null","<p style=""font-size: 50px;"">+</p>","null","html-keyboard-response","218","2.1.0","471521","J=YES, F=NO","wlr3l68nrc","2","85","85","85","","","","","","","","","","","","","","","",""
"null","audio/beep-329314.mp3","null","audio-keyboard-response","219","2.1.0","473048","J=YES, F=NO","wlr3l68nrc","2","85","85","85","","","","","","","","","","","","","","","",""
"null","audio/table1.wav","null","audio-keyboard-response","220","2.1.0","473549","J=YES, F=NO","wlr3l68nrc","2","85","85","85","","","","","","","","","","","","","","","",""
"723","
          <p id=""word"" style=""font-size: 40px;"">stimb</p>
          <p style=""font-size: 16px;"">J = YES &nbsp;&nbsp;&nbsp; F = NO</p>
        ","f","html-keyboard-response","221","2.1.0","474274","J=YES, F=NO","wlr3l68nrc","2","85","85","85","","","","","","","","","stimb","table1","pseudoword","pseudoword","f","true","",""
"null","<p style=""font-size: 50px;"">+</p>","null","html-keyboard-response","222","2.1.0","474587","J=YES, F=NO","wlr3l68nrc","2","85","85","85","","","","","","","","","","","","","","","",""
"null","audio/beep-329314.mp3","null","audio-keyboard-response","223","2.1.0","476128","J=YES, F=NO","wlr3l68nrc","2","85","85","85","","","","","","","","","","","","","","","",""
"null","audio/desire.wav","null","audio-keyboard-response","224","2.1.0","476769","J=YES, F=NO","wlr3l68nrc","2","85","85","85","","","","","","","","","","","","","","","",""
"629","
          <p id=""word"" style=""font-size: 40px;"">nophed</p>
          <p style=""font-size: 16px;"">J = YES &nbsp;&nbsp;&nbsp; F = NO</p>
        ","f","html-keyboard-response","225","2.1.0","477400","J=YES, F=NO","wlr3l68nrc","2","85","85","85","","","","","","","","","nophed","desire","pseudoword","pseudoword","f","true","",""
"null","<p style=""font-size: 50px;"">+</p>","null","html-keyboard-response","226","2.1.0","477704","J=YES, F=NO","wlr3l68nrc","2","85","85","85","","","","","","","","","","","","","","","",""
"null","audio/beep-329314.mp3","null","audio-keyboard-response","227","2.1.0","479228","J=YES, F=NO","wlr3l68nrc","2","85","85","85","","","","","","","","","","","","","","","",""
"null","audio/smirk1.wav","null","audio-keyboard-response","228","2.1.0","479968","J=YES, F=NO","wlr3l68nrc","2","85","85","85","","","","","","","","","","","","","","","",""
"543","
          <p id=""word"" style=""font-size: 40px;"">snopt</p>
          <p style=""font-size: 16px;"">J = YES &nbsp;&nbsp;&nbsp; F = NO</p>
        ","f","html-keyboard-response","229","2.1.0","480513","J=YES, F=NO","wlr3l68nrc","2","85","85","85","","","","","","","","","snopt","smirk1","pseudoword","pseudoword","f","true","",""
"1893","<p>Excellent! You have finished block 1 of 8.</p>
                     <p>Feel free to take a 30 second break.</p>
                     <p>Press any key when you're ready to continue.</p>"," ","html-keyboard-response","230","2.1.0","482408","J=YES, F=NO","wlr3l68nrc","2","85","85","85","","","","","","","","","","","","","","","",""
"806","<p>Starting main block 2 of 8. Press any key to continue.</p>"," ","html-keyboard-response","231","2.1.0","483215","J=YES, F=NO","wlr3l68nrc","2","85","85","85","","","","","","","","","","","","","","","",""
"null","<p style=""font-size: 50px;"">+</p>","null","html-keyboard-response","232","2.1.0","483520","J=YES, F=NO","wlr3l68nrc","2","85","85","85","","","","","","","","","","","","","","","",""
"null","audio/beep-329314.mp3","null","audio-keyboard-response","233","2.1.0","485048","J=YES, F=NO","wlr3l68nrc","2","85","85","85","","","","","","","","","","","","","","","",""
"null","audio/alarm1.wav","null","audio-keyboard-response","234","2.1.0","485628","J=YES, F=NO","wlr3l68nrc","2","85","85","85","","","","","","","","","","","","","","","",""
"511","
          <p id=""word"" style=""font-size: 40px;"">swetp</p>
          <p style=""font-size: 16px;"">J = YES &nbsp;&nbsp;&nbsp; F = NO</p>
        ","f","html-keyboard-response","235","2.1.0","486141","J=YES, F=NO","wlr3l68nrc","2","85","85","85","","","","","","","","","swetp","alarm1","pseudoword","pseudoword","f","true","",""
"null","<p style=""font-size: 50px;"">+</p>","null","html-keyboard-response","236","2.1.0","486454","J=YES, F=NO","wlr3l68nrc","2","85","85","85","","","","","","","","","","","","","","","",""
"null","audio/beep-329314.mp3","null","audio-keyboard-response","237","2.1.0","487988","J=YES, F=NO","wlr3l68nrc","2","85","85","85","","","","","","","","","","","","","","","",""
"null","audio/golf1.wav","null","audio-keyboard-response","238","2.1.0","488568","J=YES, F=NO","wlr3l68nrc","2","85","85","85","","","","","","","","","","","","","","","",""
"595","
          <p id=""word"" style=""font-size: 40px;"">bury</p>
          <p style=""font-size: 16px;"">J = YES &nbsp;&nbsp;&nbsp; F = NO</p>
        ","j","html-keyboard-response","239","2.1.0","489164","J=YES, F=NO","wlr3l68nrc","2","85","85","85","","","","","","","","","bury","golf1","unrelated","experimental","j","true","",""
"null","<p style=""font-size: 50px;"">+</p>","null","html-keyboard-response","240","2.1.0","489470","J=YES, F=NO","wlr3l68nrc","2","85","85","85","","","","","","","","","","","","","","","",""
"null","audio/beep-329314.mp3","null","audio-keyboard-response","241","2.1.0","491008","J=YES, F=NO","wlr3l68nrc","2","85","85","85","","","","","","","","","","","","","","","",""
"null","audio/client1.wav","null","audio-keyboard-response","242","2.1.0","491728","J=YES, F=NO","wlr3l68nrc","2","85","85","85","","","","","","","","","","","","","","","",""
"437","
          <p id=""word"" style=""font-size: 40px;"">droothe</p>
          <p style=""font-size: 16px;"">J = YES &nbsp;&nbsp;&nbsp; F = NO</p>
        ","f","html-keyboard-response","243","2.1.0","492168","J=YES, F=NO","wlr3l68nrc","2","85","85","85","","","","","","","","","droothe","client1","pseudoword","pseudoword","f","true","",""
"null","<p style=""font-size: 50px;"">+</p>","null","html-keyboard-response","244","2.1.0","492471","J=YES, F=NO","wlr3l68nrc","2","85","85","85","","","","","","","","","","","","","","","",""
"null","audio/beep-329314.mp3","null","audio-keyboard-response","245","2.1.0","494008","J=YES, F=NO","wlr3l68nrc","2","85","85","85","","","","","","","","","","","","","","","",""
"null","audio/trout1.wav","null","audio-keyboard-response","246","2.1.0","494628","J=YES, F=NO","wlr3l68nrc","2","85","85","85","","","","","","","","","","","","","","","",""
"533","
          <p id=""word"" style=""font-size: 40px;"">spimt</p>
          <p style=""font-size: 16px;"">J = YES &nbsp;&nbsp;&nbsp; F = NO</p>
        ","f","html-keyboard-response","247","2.1.0","495163","J=YES, F=NO","wlr3l68nrc","2","85","85","85","","","","","","","","","spimt","trout1","pseudoword","pseudoword","f","true","",""
"null","<p style=""font-size: 50px;"">+</p>","null","html-keyboard-response","248","2.1.0","495470","J=YES, F=NO","wlr3l68nrc","2","85","85","85","","","","","","","","","","","","","","","",""
"null","audio/beep-329314.mp3","null","audio-keyboard-response","249","2.1.0","497009","J=YES, F=NO","wlr3l68nrc","2","85","85","85","","","","","","","","","","","","","","","",""
"null","audio/smirk1.wav","null","audio-keyboard-response","250","2.1.0","497728","J=YES, F=NO","wlr3l68nrc","2","85","85","85","","","","","","","","","","","","","","","",""
"560","
          <p id=""word"" style=""font-size: 40px;"">wipe</p>
          <p style=""font-size: 16px;"">J = YES &nbsp;&nbsp;&nbsp; F = NO</p>
        ","j","html-keyboard-response","251","2.1.0","498290","J=YES, F=NO","wlr3l68nrc","2","85","85","85","","","","","","","","","wipe","smirk1","metaphor","experimental","j","true","",""
"null","<p style=""font-size: 50px;"">+</p>","null","html-keyboard-response","252","2.1.0","498604","J=YES, F=NO","wlr3l68nrc","2","85","85","85","","","","","","","","","","","","","","","",""
"null","audio/beep-329314.mp3","null","audio-keyboard-response","253","2.1.0","500128","J=YES, F=NO","wlr3l68nrc","2","85","85","85","","","","","","","","","","","","","","","",""
"null","audio/arm.wav","null","audio-keyboard-response","254","2.1.0","500708","J=YES, F=NO","wlr3l68nrc","2","85","85","85","","","","","","","","","","","","","","","",""
"539","
          <p id=""word"" style=""font-size: 40px;"">pigne</p>
          <p style=""font-size: 16px;"">J = YES &nbsp;&nbsp;&nbsp; F = NO</p>
        ","f","html-keyboard-response","255","2.1.0","501249","J=YES, F=NO","wlr3l68nrc","2","85","85","85","","","","","","","","","pigne","arm","pseudoword","pseudoword","f","true","",""
"null","<p style=""font-size: 50px;"">+</p>","null","html-keyboard-response","256","2.1.0","501553","J=YES, F=NO","wlr3l68nrc","2","85","85","85","","","","","","","","","","","","","","","",""
"null","audio/beep-329314.mp3","null","audio-keyboard-response","257","2.1.0","503088","J=YES, F=NO","wlr3l68nrc","2","85","85","85","","","","","","","","","","","","","","","",""
"null","audio/emotion.wav","null","audio-keyboard-response","258","2.1.0","503748","J=YES, F=NO","wlr3l68nrc","2","85","85","85","","","","","","","","","","","","","","","",""
"453","
          <p id=""word"" style=""font-size: 40px;"">devering</p>
          <p style=""font-size: 16px;"">J = YES &nbsp;&nbsp;&nbsp; F = NO</p>
        ","f","html-keyboard-response","259","2.1.0","504202","J=YES, F=NO","wlr3l68nrc","2","85","85","85","","","","","","","","","devering","emotion","pseudoword","pseudoword","f","true","",""
"null","<p style=""font-size: 50px;"">+</p>","null","html-keyboard-response","260","2.1.0","504520","J=YES, F=NO","wlr3l68nrc","2","85","85","85","","","","","","","","","","","","","","","",""
"null","audio/beep-329314.mp3","null","audio-keyboard-response","261","2.1.0","506048","J=YES, F=NO","wlr3l68nrc","2","85","85","85","","","","","","","","","","","","","","","",""
"null","audio/survey1.wav","null","audio-keyboard-response","262","2.1.0","506788","J=YES, F=NO","wlr3l68nrc","2","85","85","85","","","","","","","","","","","","","","","",""
"638","
          <p id=""word"" style=""font-size: 40px;"">imploth</p>
          <p style=""font-size: 16px;"">J = YES &nbsp;&nbsp;&nbsp; F = NO</p>
        ","f","html-keyboard-response","263","2.1.0","507427","J=YES, F=NO","wlr3l68nrc","2","85","85","85","","","","","","","","","imploth","survey1","pseudoword","pseudoword","f","true","",""
"null","<p style=""font-size: 50px;"">+</p>","null","html-keyboard-response","264","2.1.0","507737","J=YES, F=NO","wlr3l68nrc","2","85","85","85","","","","","","","","","","","","","","","",""
"null","audio/beep-329314.mp3","null","audio-keyboard-response","265","2.1.0","509268","J=YES, F=NO","wlr3l68nrc","2","85","85","85","","","","","","","","","","","","","","","",""
"null","audio/gold1.wav","null","audio-keyboard-response","266","2.1.0","509848","J=YES, F=NO","wlr3l68nrc","2","85","85","85","","","","","","","","","","","","","","","",""
"509","
          <p id=""word"" style=""font-size: 40px;"">sell</p>
          <p style=""font-size: 16px;"">J = YES &nbsp;&nbsp;&nbsp; F = NO</p>
        ","j","html-keyboard-response","267","2.1.0","510358","J=YES, F=NO","wlr3l68nrc","2","85","85","85","","","","","","","","","sell","gold1","literal","experimental","j","true","",""
"null","<p style=""font-size: 50px;"">+</p>","null","html-keyboard-response","268","2.1.0","510670","J=YES, F=NO","wlr3l68nrc","2","85","85","85","","","","","","","","","","","","","","","",""
"null","audio/beep-329314.mp3","null","audio-keyboard-response","269","2.1.0","512208","J=YES, F=NO","wlr3l68nrc","2","85","85","85","","","","","","","","","","","","","","","",""
"null","audio/tunnel.wav","null","audio-keyboard-response","270","2.1.0","512648","J=YES, F=NO","wlr3l68nrc","2","85","85","85","","","","","","","","","","","","","","","",""
"524","
          <p id=""word"" style=""font-size: 40px;"">grasp</p>
          <p style=""font-size: 16px;"">J = YES &nbsp;&nbsp;&nbsp; F = NO</p>
        ","j","html-keyboard-response","271","2.1.0","513174","J=YES, F=NO","wlr3l68nrc","2","85","85","85","","","","","","","","","grasp","tunnel","unrelated","experimental","j","true","",""
"null","<p style=""font-size: 50px;"">+</p>","null","html-keyboard-response","272","2.1.0","513487","J=YES, F=NO","wlr3l68nrc","2","85","85","85","","","","","","","","","","","","","","","",""
"null","audio/beep-329314.mp3","null","audio-keyboard-response","273","2.1.0","515028","J=YES, F=NO","wlr3l68nrc","2","85","85","85","","","","","","","","","","","","","","","",""
"null","audio/topic.wav","null","audio-keyboard-response","274","2.1.0","515648","J=YES, F=NO","wlr3l68nrc","2","85","85","85","","","","","","","","","","","","","","","",""
"634","
          <p id=""word"" style=""font-size: 40px;"">approach</p>
          <p style=""font-size: 16px;"">J = YES &nbsp;&nbsp;&nbsp; F = NO</p>
        ","j","html-keyboard-response","275","2.1.0","516283","J=YES, F=NO","wlr3l68nrc","2","85","85","85","","","","","","","","","approach","topic","metaphor","experimental","j","true","",""
"null","<p style=""font-size: 50px;"">+</p>","null","html-keyboard-response","276","2.1.0","516586","J=YES, F=NO","wlr3l68nrc","2","85","85","85","","","","","","","","","","","","","","","",""
"null","audio/beep-329314.mp3","null","audio-keyboard-response","277","2.1.0","518128","J=YES, F=NO","wlr3l68nrc","2","85","85","85","","","","","","","","","","","","","","","",""
"null","audio/topic.wav","null","audio-keyboard-response","278","2.1.0","518708","J=YES, F=NO","wlr3l68nrc","2","85","85","85","","","","","","","","","","","","","","","",""
"726","
          <p id=""word"" style=""font-size: 40px;"">infortuitist</p>
          <p style=""font-size: 16px;"">J = YES &nbsp;&nbsp;&nbsp; F = NO</p>
        ","f","html-keyboard-response","279","2.1.0","519436","J=YES, F=NO","wlr3l68nrc","2","85","85","85","","","","","","","","","infortuitist","topic","pseudoword","pseudoword","f","true","",""
"null","<p style=""font-size: 50px;"">+</p>","null","html-keyboard-response","280","2.1.0","519753","J=YES, F=NO","wlr3l68nrc","2","85","85","85","","","","","","","","","","","","","","","",""
"null","audio/beep-329314.mp3","null","audio-keyboard-response","281","2.1.0","521288","J=YES, F=NO","wlr3l68nrc","2","85","85","85","","","","","","","","","","","","","","","",""
"null","audio/corpse1.wav","null","audio-keyboard-response","282","2.1.0","521928","J=YES, F=NO","wlr3l68nrc","2","85","85","85","","","","","","","","","","","","","","","",""
"624","
          <p id=""word"" style=""font-size: 40px;"">glonet</p>
          <p style=""font-size: 16px;"">J = YES &nbsp;&nbsp;&nbsp; F = NO</p>
        ","f","html-keyboard-response","283","2.1.0","522554","J=YES, F=NO","wlr3l68nrc","2","85","85","85","","","","","","","","","glonet","corpse1","pseudoword","pseudoword","f","true","",""
"null","<p style=""font-size: 50px;"">+</p>","null","html-keyboard-response","284","2.1.0","522870","J=YES, F=NO","wlr3l68nrc","2","85","85","85","","","","","","","","","","","","","","","",""
"null","audio/beep-329314.mp3","null","audio-keyboard-response","285","2.1.0","524408","J=YES, F=NO","wlr3l68nrc","2","85","85","85","","","","","","","","","","","","","","","",""
"null","audio/scar.wav","null","audio-keyboard-response","286","2.1.0","525027","J=YES, F=NO","wlr3l68nrc","2","85","85","85","","","","","","","","","","","","","","","",""
"551","
          <p id=""word"" style=""font-size: 40px;"">hide</p>
          <p style=""font-size: 16px;"">J = YES &nbsp;&nbsp;&nbsp; F = NO</p>
        ","j","html-keyboard-response","287","2.1.0","525579","J=YES, F=NO","wlr3l68nrc","2","85","85","85","","","","","","","","","hide","scar","literal","experimental","j","true","",""
"null","<p style=""font-size: 50px;"">+</p>","null","html-keyboard-response","288","2.1.0","525885","J=YES, F=NO","wlr3l68nrc","2","85","85","85","","","","","","","","","","","","","","","",""
"null","audio/beep-329314.mp3","null","audio-keyboard-response","289","2.1.0","527408","J=YES, F=NO","wlr3l68nrc","2","85","85","85","","","","","","","","","","","","","","","",""
"null","audio/terrain.wav","null","audio-keyboard-response","290","2.1.0","527988","J=YES, F=NO","wlr3l68nrc","2","85","85","85","","","","","","","","","","","","","","","",""
"500","
          <p id=""word"" style=""font-size: 40px;"">navigate</p>
          <p style=""font-size: 16px;"">J = YES &nbsp;&nbsp;&nbsp; F = NO</p>
        ","j","html-keyboard-response","291","2.1.0","528490","J=YES, F=NO","wlr3l68nrc","2","85","85","85","","","","","","","","","navigate","terrain","literal","experimental","j","true","",""
"null","<p style=""font-size: 50px;"">+</p>","null","html-keyboard-response","292","2.1.0","528803","J=YES, F=NO","wlr3l68nrc","2","85","85","85","","","","","","","","","","","","","","","",""
"null","audio/beep-329314.mp3","null","audio-keyboard-response","293","2.1.0","530328","J=YES, F=NO","wlr3l68nrc","2","85","85","85","","","","","","","","","","","","","","","",""
"null","audio/cancer1.wav","null","audio-keyboard-response","294","2.1.0","530908","J=YES, F=NO","wlr3l68nrc","2","85","85","85","","","","","","","","","","","","","","","",""
"488","
          <p id=""word"" style=""font-size: 40px;"">draw</p>
          <p style=""font-size: 16px;"">J = YES &nbsp;&nbsp;&nbsp; F = NO</p>
        ","j","html-keyboard-response","295","2.1.0","531397","J=YES, F=NO","wlr3l68nrc","2","85","85","85","","","","","","","","","draw","cancer1","filler","filler","j","true","",""
"1060","<p>Excellent! You have finished block 2 of 8.</p>
                     <p>Feel free to take a 30 second break.</p>
                     <p>Press any key when you're ready to continue.</p>"," ","html-keyboard-response","296","2.1.0","532459","J=YES, F=NO","wlr3l68nrc","2","85","85","85","","","","","","","","","","","","","","","",""
"667","<p>Starting main block 3 of 8. Press any key to continue.</p>"," ","html-keyboard-response","297","2.1.0","533127","J=YES, F=NO","wlr3l68nrc","2","85","85","85","","","","","","","","","","","","","","","",""
"null","<p style=""font-size: 50px;"">+</p>","null","html-keyboard-response","298","2.1.0","533436","J=YES, F=NO","wlr3l68nrc","2","85","85","85","","","","","","","","","","","","","","","",""
"null","audio/beep-329314.mp3","null","audio-keyboard-response","299","2.1.0","534968","J=YES, F=NO","wlr3l68nrc","2","85","85","85","","","","","","","","","","","","","","","",""
"null","audio/foot1.wav","null","audio-keyboard-response","300","2.1.0","535548","J=YES, F=NO","wlr3l68nrc","2","85","85","85","","","","","","","","","","","","","","","",""
"643","
          <p id=""word"" style=""font-size: 40px;"">thrutt</p>
          <p style=""font-size: 16px;"">J = YES &nbsp;&nbsp;&nbsp; F = NO</p>
        ","f","html-keyboard-response","301","2.1.0","536192","J=YES, F=NO","wlr3l68nrc","2","85","85","85","","","","","","","","","thrutt","foot1","pseudoword","pseudoword","f","true","",""
"null","<p style=""font-size: 50px;"">+</p>","null","html-keyboard-response","302","2.1.0","536503","J=YES, F=NO","wlr3l68nrc","2","85","85","85","","","","","","","","","","","","","","","",""
"null","audio/beep-329314.mp3","null","audio-keyboard-response","303","2.1.0","538028","J=YES, F=NO","wlr3l68nrc","2","85","85","85","","","","","","","","","","","","","","","",""
"null","audio/cinema1.wav","null","audio-keyboard-response","304","2.1.0","538628","J=YES, F=NO","wlr3l68nrc","2","85","85","85","","","","","","","","","","","","","","","",""
"410","
          <p id=""word"" style=""font-size: 40px;"">grow</p>
          <p style=""font-size: 16px;"">J = YES &nbsp;&nbsp;&nbsp; F = NO</p>
        ","j","html-keyboard-response","305","2.1.0","539040","J=YES, F=NO","wlr3l68nrc","2","85","85","85","","","","","","","","","grow","cinema1","unrelated","experimental","j","true","",""
"null","<p style=""font-size: 50px;"">+</p>","null","html-keyboard-response","306","2.1.0","539353","J=YES, F=NO","wlr3l68nrc","2","85","85","85","","","","","","","","","","","","","","","",""
"null","audio/beep-329314.mp3","null","audio-keyboard-response","307","2.1.0","540888","J=YES, F=NO","wlr3l68nrc","2","85","85","85","","","","","","","","","","","","","","","",""
"null","audio/fox.wav","null","audio-keyboard-response","308","2.1.0","541708","J=YES, F=NO","wlr3l68nrc","2","85","85","85","","","","","","","","","","","","","","","",""
"577","
          <p id=""word"" style=""font-size: 40px;"">conquer</p>
          <p style=""font-size: 16px;"">J = YES &nbsp;&nbsp;&nbsp; F = NO</p>
        ","j","html-keyboard-response","309","2.1.0","542287","J=YES, F=NO","wlr3l68nrc","2","85","85","85","","","","","","","","","conquer","fox","unrelated","experimental","j","true","",""
"null","<p style=""font-size: 50px;"">+</p>","null","html-keyboard-response","310","2.1.0","542602","J=YES, F=NO","wlr3l68nrc","2","85","85","85","","","","","","","","","","","","","","","",""
"null","audio/beep-329314.mp3","null","audio-keyboard-response","311","2.1.0","544128","J=YES, F=NO","wlr3l68nrc","2","85","85","85","","","","","","","","","","","","","","","",""
"null","audio/foe1.wav","null","audio-keyboard-response","312","2.1.0","544668","J=YES, F=NO","wlr3l68nrc","2","85","85","85","","","","","","","","","","","","","","","",""
"610","
          <p id=""word"" style=""font-size: 40px;"">creth</p>
          <p style=""font-size: 16px;"">J = YES &nbsp;&nbsp;&nbsp; F = NO</p>
        ","f","html-keyboard-response","313","2.1.0","545280","J=YES, F=NO","wlr3l68nrc","2","85","85","85","","","","","","","","","creth","foe1","pseudoword","pseudoword","f","true","",""
"null","<p style=""font-size: 50px;"">+</p>","null","html-keyboard-response","314","2.1.0","545586","J=YES, F=NO","wlr3l68nrc","2","85","85","85","","","","","","","","","","","","","","","",""
"null","audio/beep-329314.mp3","null","audio-keyboard-response","315","2.1.0","547128","J=YES, F=NO","wlr3l68nrc","2","85","85","85","","","","","","","","","","","","","","","",""
"null","audio/prisoner.wav","null","audio-keyboard-response","316","2.1.0","547648","J=YES, F=NO","wlr3l68nrc","2","85","85","85","","","","","","","","","","","","","","","",""
"609","
          <p id=""word"" style=""font-size: 40px;"">egotian</p>
          <p style=""font-size: 16px;"">J = YES &nbsp;&nbsp;&nbsp; F = NO</p>
        ","f","html-keyboard-response","317","2.1.0","548259","J=YES, F=NO","wlr3l68nrc","2","85","85","85","","","","","","","","","egotian","prisoner","pseudoword","pseudoword","f","true","",""
"null","<p style=""font-size: 50px;"">+</p>","null","html-keyboard-response","318","2.1.0","548569","J=YES, F=NO","wlr3l68nrc","2","85","85","85","","","","","","","","","","","","","","","",""
"null","audio/beep-329314.mp3","null","audio-keyboard-response","319","2.1.0","550108","J=YES, F=NO","wlr3l68nrc","2","85","85","85","","","","","","","","","","","","","","","",""
"null","audio/planet1.wav","null","audio-keyboard-response","320","2.1.0","550728","J=YES, F=NO","wlr3l68nrc","2","85","85","85","","","","","","","","","","","","","","","",""
"409","
          <p id=""word"" style=""font-size: 40px;"">save</p>
          <p style=""font-size: 16px;"">J = YES &nbsp;&nbsp;&nbsp; F = NO</p>
        ","j","html-keyboard-response","321","2.1.0","551139","J=YES, F=NO","wlr3l68nrc","2","85","85","85","","","","","","","","","save","planet1","metaphor","experimental","j","true","",""
"null","<p style=""font-size: 50px;"">+</p>","null","html-keyboard-response","322","2.1.0","551452","J=YES, F=NO","wlr3l68nrc","2","85","85","85","","","","","","","","","","","","","","","",""
"null","audio/beep-329314.mp3","null","audio-keyboard-response","323","2.1.0","552988","J=YES, F=NO","wlr3l68nrc","2","85","85","85","","","","","","","","","","","","","","","",""
"null","audio/bomb1.wav","null","audio-keyboard-response","324","2.1.0","553388","J=YES, F=NO","wlr3l68nrc","2","85","85","85","","","","","","","","","","","","","","","",""
"527","
          <p id=""word"" style=""font-size: 40px;"">clean</p>
          <p style=""font-size: 16px;"">J = YES &nbsp;&nbsp;&nbsp; F = NO</p>
        ","j","html-keyboard-response","325","2.1.0","553916","J=YES, F=NO","wlr3l68nrc","2","85","85","85","","","","","","","","","clean","bomb1","filler","filler","j","true","",""
"null","<p style=""font-size: 50px;"">+</p>","null","html-keyboard-response","326","2.1.0","554219","J=YES, F=NO","wlr3l68nrc","2","85","85","85","","","","","","","","","","","","","","","",""
"null","audio/beep-329314.mp3","null","audio-keyboard-response","327","2.1.0","555748","J=YES, F=NO","wlr3l68nrc","2","85","85","85","","","","","","","","","","","","","","","",""
"null","audio/cave1.wav","null","audio-keyboard-response","328","2.1.0","556328","J=YES, F=NO","wlr3l68nrc","2","85","85","85","","","","","","","","","","","","","","","",""
"544","
          <p id=""word"" style=""font-size: 40px;"">blacket</p>
          <p style=""font-size: 16px;"">J = YES &nbsp;&nbsp;&nbsp; F = NO</p>
        ","j","html-keyboard-response","329","2.1.0","556873","J=YES, F=NO","wlr3l68nrc","2","85","85","85","","","","","","","","","blacket","cave1","pseudoword","pseudoword","f","false","",""
"null","<p style=""font-size: 50px;"">+</p>","null","html-keyboard-response","330","2.1.0","557185","J=YES, F=NO","wlr3l68nrc","2","85","85","85","","","","","","","","","","","","","","","",""
"null","audio/beep-329314.mp3","null","audio-keyboard-response","331","2.1.0","558708","J=YES, F=NO","wlr3l68nrc","2","85","85","85","","","","","","","","","","","","","","","",""
"null","audio/roof1.wav","null","audio-keyboard-response","332","2.1.0","559288","J=YES, F=NO","wlr3l68nrc","2","85","85","85","","","","","","","","","","","","","","","",""
"536","
          <p id=""word"" style=""font-size: 40px;"">construct</p>
          <p style=""font-size: 16px;"">J = YES &nbsp;&nbsp;&nbsp; F = NO</p>
        ","j","html-keyboard-response","333","2.1.0","559826","J=YES, F=NO","wlr3l68nrc","2","85","85","85","","","","","","","","","construct","roof1","literal","experimental","j","true","",""
"null","<p style=""font-size: 50px;"">+</p>","null","html-keyboard-response","334","2.1.0","560135","J=YES, F=NO","wlr3l68nrc","2","85","85","85","","","","","","","","","","","","","","","",""
"null","audio/beep-329314.mp3","null","audio-keyboard-response","335","2.1.0","561668","J=YES, F=NO","wlr3l68nrc","2","85","85","85","","","","","","","","","","","","","","","",""
"null","audio/trout1.wav","null","audio-keyboard-response","336","2.1.0","562248","J=YES, F=NO","wlr3l68nrc","2","85","85","85","","","","","","","","","","","","","","","",""
"516","
          <p id=""word"" style=""font-size: 40px;"">catch</p>
          <p style=""font-size: 16px;"">J = YES &nbsp;&nbsp;&nbsp; F = NO</p>
        ","j","html-keyboard-response","337","2.1.0","562766","J=YES, F=NO","wlr3l68nrc","2","85","85","85","","","","","","","","","catch","trout1","literal","experimental","j","true","",""
"null","<p style=""font-size: 50px;"">+</p>","null","html-keyboard-response","338","2.1.0","563085","J=YES, F=NO","wlr3l68nrc","2","85","85","85","","","","","","","","","","","","","","","",""
"null","audio/beep-329314.mp3","null","audio-keyboard-response","339","2.1.0","564608","J=YES, F=NO","wlr3l68nrc","2","85","85","85","","","","","","","","","","","","","","","",""
"null","audio/neck.wav","null","audio-keyboard-response","340","2.1.0","565147","J=YES, F=NO","wlr3l68nrc","2","85","85","85","","","","","","","","","","","","","","","",""
"489","
          <p id=""word"" style=""font-size: 40px;"">share</p>
          <p style=""font-size: 16px;"">J = YES &nbsp;&nbsp;&nbsp; F = NO</p>
        ","j","html-keyboard-response","341","2.1.0","565637","J=YES, F=NO","wlr3l68nrc","2","85","85","85","","","","","","","","","share","neck","unrelated","experimental","j","true","",""
"null","<p style=""font-size: 50px;"">+</p>","null","html-keyboard-response","342","2.1.0","565952","J=YES, F=NO","wlr3l68nrc","2","85","85","85","","","","","","","","","","","","","","","",""
"null","audio/beep-329314.mp3","null","audio-keyboard-response","343","2.1.0","567488","J=YES, F=NO","wlr3l68nrc","2","85","85","85","","","","","","","","","","","","","","","",""
"null","audio/camera1.wav","null","audio-keyboard-response","344","2.1.0","567988","J=YES, F=NO","wlr3l68nrc","2","85","85","85","","","","","","","","","","","","","","","",""
"439","
          <p id=""word"" style=""font-size: 40px;"">stir</p>
          <p style=""font-size: 16px;"">J = YES &nbsp;&nbsp;&nbsp; F = NO</p>
        ","j","html-keyboard-response","345","2.1.0","568428","J=YES, F=NO","wlr3l68nrc","2","85","85","85","","","","","","","","","stir","camera1","filler","filler","j","true","",""
"null","<p style=""font-size: 50px;"">+</p>","null","html-keyboard-response","346","2.1.0","568735","J=YES, F=NO","wlr3l68nrc","2","85","85","85","","","","","","","","","","","","","","","",""
"null","audio/beep-329314.mp3","null","audio-keyboard-response","347","2.1.0","570268","J=YES, F=NO","wlr3l68nrc","2","85","85","85","","","","","","","","","","","","","","","",""
"null","audio/bottle.wav","null","audio-keyboard-response","348","2.1.0","570768","J=YES, F=NO","wlr3l68nrc","2","85","85","85","","","","","","","","","","","","","","","",""
"600","
          <p id=""word"" style=""font-size: 40px;"">watch</p>
          <p style=""font-size: 16px;"">J = YES &nbsp;&nbsp;&nbsp; F = NO</p>
        ","j","html-keyboard-response","349","2.1.0","571370","J=YES, F=NO","wlr3l68nrc","2","85","85","85","","","","","","","","","watch","bottle","filler","filler","j","true","",""
"null","<p style=""font-size: 50px;"">+</p>","null","html-keyboard-response","350","2.1.0","571685","J=YES, F=NO","wlr3l68nrc","2","85","85","85","","","","","","","","","","","","","","","",""
"null","audio/beep-329314.mp3","null","audio-keyboard-response","351","2.1.0","573208","J=YES, F=NO","wlr3l68nrc","2","85","85","85","","","","","","","","","","","","","","","",""
"null","audio/sugar1.wav","null","audio-keyboard-response","352","2.1.0","573728","J=YES, F=NO","wlr3l68nrc","2","85","85","85","","","","","","","","","","","","","","","",""
"690","
          <p id=""word"" style=""font-size: 40px;"">glung</p>
          <p style=""font-size: 16px;"">J = YES &nbsp;&nbsp;&nbsp; F = NO</p>
        ","f","html-keyboard-response","353","2.1.0","574420","J=YES, F=NO","wlr3l68nrc","2","85","85","85","","","","","","","","","glung","sugar1","pseudoword","pseudoword","f","true","",""
"null","<p style=""font-size: 50px;"">+</p>","null","html-keyboard-response","354","2.1.0","574735","J=YES, F=NO","wlr3l68nrc","2","85","85","85","","","","","","","","","","","","","","","",""
"null","audio/beep-329314.mp3","null","audio-keyboard-response","355","2.1.0","576268","J=YES, F=NO","wlr3l68nrc","2","85","85","85","","","","","","","","","","","","","","","",""
"null","audio/show.wav","null","audio-keyboard-response","356","2.1.0","576847","J=YES, F=NO","wlr3l68nrc","2","85","85","85","","","","","","","","","","","","","","","",""
"511","
          <p id=""word"" style=""font-size: 40px;"">smark</p>
          <p style=""font-size: 16px;"">J = YES &nbsp;&nbsp;&nbsp; F = NO</p>
        ","j","html-keyboard-response","357","2.1.0","577360","J=YES, F=NO","wlr3l68nrc","2","85","85","85","","","","","","","","","smark","show","pseudoword","pseudoword","f","false","",""
"null","<p style=""font-size: 50px;"">+</p>","null","html-keyboard-response","358","2.1.0","577668","J=YES, F=NO","wlr3l68nrc","2","85","85","85","","","","","","","","","","","","","","","",""
"null","audio/beep-329314.mp3","null","audio-keyboard-response","359","2.1.0","579207","J=YES, F=NO","wlr3l68nrc","2","85","85","85","","","","","","","","","","","","","","","",""
"null","audio/plot1.wav","null","audio-keyboard-response","360","2.1.0","579788","J=YES, F=NO","wlr3l68nrc","2","85","85","85","","","","","","","","","","","","","","","",""
"545","
          <p id=""word"" style=""font-size: 40px;"">glenter</p>
          <p style=""font-size: 16px;"">J = YES &nbsp;&nbsp;&nbsp; F = NO</p>
        ","f","html-keyboard-response","361","2.1.0","580335","J=YES, F=NO","wlr3l68nrc","2","85","85","85","","","","","","","","","glenter","plot1","pseudoword","pseudoword","f","true","",""
"1087","<p>Excellent! You have finished block 3 of 8.</p>
                     <p>Feel free to take a 30 second break.</p>
                     <p>Press any key when you're ready to continue.</p>"," ","html-keyboard-response","362","2.1.0","581424","J=YES, F=NO","wlr3l68nrc","2","85","85","85","","","","","","","","","","","","","","","",""
"630","<p>Starting main block 4 of 8. Press any key to continue.</p>"," ","html-keyboard-response","363","2.1.0","582055","J=YES, F=NO","wlr3l68nrc","2","85","85","85","","","","","","","","","","","","","","","",""
"null","<p style=""font-size: 50px;"">+</p>","null","html-keyboard-response","364","2.1.0","582368","J=YES, F=NO","wlr3l68nrc","2","85","85","85","","","","","","","","","","","","","","","",""
"null","audio/beep-329314.mp3","null","audio-keyboard-response","365","2.1.0","583908","J=YES, F=NO","wlr3l68nrc","2","85","85","85","","","","","","","","","","","","","","","",""
"null","audio/pain1.wav","null","audio-keyboard-response","366","2.1.0","584367","J=YES, F=NO","wlr3l68nrc","2","85","85","85","","","","","","","","","","","","","","","",""
"521","
          <p id=""word"" style=""font-size: 40px;"">tritted</p>
          <p style=""font-size: 16px;"">J = YES &nbsp;&nbsp;&nbsp; F = NO</p>
        ","f","html-keyboard-response","367","2.1.0","584891","J=YES, F=NO","wlr3l68nrc","2","85","85","85","","","","","","","","","tritted","pain1","pseudoword","pseudoword","f","true","",""
"null","<p style=""font-size: 50px;"">+</p>","null","html-keyboard-response","368","2.1.0","585201","J=YES, F=NO","wlr3l68nrc","2","85","85","85","","","","","","","","","","","","","","","",""
"null","audio/beep-329314.mp3","null","audio-keyboard-response","369","2.1.0","586728","J=YES, F=NO","wlr3l68nrc","2","85","85","85","","","","","","","","","","","","","","","",""
"null","audio/test1.wav","null","audio-keyboard-response","370","2.1.0","587327","J=YES, F=NO","wlr3l68nrc","2","85","85","85","","","","","","","","","","","","","","","",""
"519","
          <p id=""word"" style=""font-size: 40px;"">twopch</p>
          <p style=""font-size: 16px;"">J = YES &nbsp;&nbsp;&nbsp; F = NO</p>
        ","f","html-keyboard-response","371","2.1.0","587847","J=YES, F=NO","wlr3l68nrc","2","85","85","85","","","","","","","","","twopch","test1","pseudoword","pseudoword","f","true","",""
"null","<p style=""font-size: 50px;"">+</p>","null","html-keyboard-response","372","2.1.0","588151","J=YES, F=NO","wlr3l68nrc","2","85","85","85","","","","","","","","","","","","","","","",""
"null","audio/beep-329314.mp3","null","audio-keyboard-response","373","2.1.0","589687","J=YES, F=NO","wlr3l68nrc","2","85","85","85","","","","","","","","","","","","","","","",""
"null","audio/roof1.wav","null","audio-keyboard-response","374","2.1.0","590228","J=YES, F=NO","wlr3l68nrc","2","85","85","85","","","","","","","","","","","","","","","",""
"521","
          <p id=""word"" style=""font-size: 40px;"">wronb</p>
          <p style=""font-size: 16px;"">J = YES &nbsp;&nbsp;&nbsp; F = NO</p>
        ","f","html-keyboard-response","375","2.1.0","590750","J=YES, F=NO","wlr3l68nrc","2","85","85","85","","","","","","","","","wronb","roof1","pseudoword","pseudoword","f","true","",""
"null","<p style=""font-size: 50px;"">+</p>","null","html-keyboard-response","376","2.1.0","591068","J=YES, F=NO","wlr3l68nrc","2","85","85","85","","","","","","","","","","","","","","","",""
"null","audio/beep-329314.mp3","null","audio-keyboard-response","377","2.1.0","592607","J=YES, F=NO","wlr3l68nrc","2","85","85","85","","","","","","","","","","","","","","","",""
"null","audio/arm.wav","null","audio-keyboard-response","378","2.1.0","593147","J=YES, F=NO","wlr3l68nrc","2","85","85","85","","","","","","","","","","","","","","","",""
"580","
          <p id=""word"" style=""font-size: 40px;"">fold</p>
          <p style=""font-size: 16px;"">J = YES &nbsp;&nbsp;&nbsp; F = NO</p>
        ","j","html-keyboard-response","379","2.1.0","593730","J=YES, F=NO","wlr3l68nrc","2","85","85","85","","","","","","","","","fold","arm","filler","filler","j","true","",""
"null","<p style=""font-size: 50px;"">+</p>","null","html-keyboard-response","380","2.1.0","594034","J=YES, F=NO","wlr3l68nrc","2","85","85","85","","","","","","","","","","","","","","","",""
"null","audio/beep-329314.mp3","null","audio-keyboard-response","381","2.1.0","595568","J=YES, F=NO","wlr3l68nrc","2","85","85","85","","","","","","","","","","","","","","","",""
"null","audio/haste1.wav","null","audio-keyboard-response","382","2.1.0","596168","J=YES, F=NO","wlr3l68nrc","2","85","85","85","","","","","","","","","","","","","","","",""
"618","
          <p id=""word"" style=""font-size: 40px;"">coraconate</p>
          <p style=""font-size: 16px;"">J = YES &nbsp;&nbsp;&nbsp; F = NO</p>
        ","f","html-keyboard-response","383","2.1.0","596787","J=YES, F=NO","wlr3l68nrc","2","85","85","85","","","","","","","","","coraconate","haste1","pseudoword","pseudoword","f","true","",""
"null","<p style=""font-size: 50px;"">+</p>","null","html-keyboard-response","384","2.1.0","597101","J=YES, F=NO","wlr3l68nrc","2","85","85","85","","","","","","","","","","","","","","","",""
"null","audio/beep-329314.mp3","null","audio-keyboard-response","385","2.1.0","598628","J=YES, F=NO","wlr3l68nrc","2","85","85","85","","","","","","","","","","","","","","","",""
"null","audio/baby.wav","null","audio-keyboard-response","386","2.1.0","599107","J=YES, F=NO","wlr3l68nrc","2","85","85","85","","","","","","","","","","","","","","","",""
"515","
          <p id=""word"" style=""font-size: 40px;"">lift</p>
          <p style=""font-size: 16px;"">J = YES &nbsp;&nbsp;&nbsp; F = NO</p>
        ","j","html-keyboard-response","387","2.1.0","599625","J=YES, F=NO","wlr3l68nrc","2","85","85","85","","","","","","","","","lift","baby","filler","filler","j","true","",""
"null","<p style=""font-size: 50px;"">+</p>","null","html-keyboard-response","388","2.1.0","599934","J=YES, F=NO","wlr3l68nrc","2","85","85","85","","","","","","","","","","","","","","","",""
"null","audio/beep-329314.mp3","null","audio-keyboard-response","389","2.1.0","601468","J=YES, F=NO","wlr3l68nrc","2","85","85","85","","","","","","","","","","","","","","","",""
"null","audio/mind.wav","null","audio-keyboard-response","390","2.1.0","602027","J=YES, F=NO","wlr3l68nrc","2","85","85","85","","","","","","","","","","","","","","","",""
"429","
          <p id=""word"" style=""font-size: 40px;"">clear</p>
          <p style=""font-size: 16px;"">J = YES &nbsp;&nbsp;&nbsp; F = NO</p>
        ","j","html-keyboard-response","391","2.1.0","602457","J=YES, F=NO","wlr3l68nrc","2","85","85","85","","","","","","","","","clear","mind","metaphor","experimental","j","true","",""
