"rt","stimulus","response","trial_type","trial_index","plugin_version","time_elapsed","response_mapping","subject_id","list_index","lextale_score","lextale_word_score","lextale_nonword_score","success","timeout","failed_images","failed_audio","failed_video","task","isWord","isDummy","target","prime","prime_type","stimulus_type","correct_response","correct","section","question_order"
"29514","
    <div style=""max-width: 800px; margin: auto; text-align: left;"">
      <h2>STANFORD UNIVERSITY</h2>
      <h3>Research Information Sheet</h3>
      <p><strong>Protocol Director:</strong> Robert Hawkins<br>
      <strong>Protocol Title:</strong> Communication and social cognition in natural audiovisual contexts<br>
      <strong>IRB#:</strong> 77226</p>

      <p><strong>DESCRIPTION:</strong> You are invited to participate in a research study about language and communication. The purpose of the research is to understand how you interact and communicate with other people in naturalistic settings as a fluent English speaker. This research will be conducted through the Prolific platform, including participants from the US, UK, and Canada. If you decide to participate in this research, you will play a communication game in a group with one or more partners.</p>

      <p><strong>TIME INVOLVEMENT:</strong> The task will last the amount of time advertised on Prolific. You are free to withdraw from the study at any time.</p>

      <p><strong>RISKS AND BENEFITS:</strong> You may become frustrated if your partner gets distracted, or experience discomfort if other participants in your group send text that is inappropriate for the task. We ask you to please be respectful of other participants you might be interacting with to mitigate these risks. You may also experience discomfort when being asked to discuss or challenge emotionally salient political beliefs. Study data will be stored securely, in compliance with Stanford University standards, minimizing the risk of confidentiality breach. This study advances our scientific understanding of how people communicate and collaborate in naturalistic settings. This study may lead to further insights about what can go wrong in teamwork, suggest potential interventions to overcome these barriers, and help to develop assistive technologies that collaborate with human partners. We cannot and do not guarantee or promise that you will receive any benefits from this study.</p>

      <p><strong>PAYMENTS:</strong> You will receive payment in the amount advertised on Prolific. If you do not complete this study, you will receive prorated payment based on the time that you have spent. Additionally, you may be eligible for bonus payments as described in the instructions.</p>

      <p><strong>PARTICIPANT’S RIGHTS:</strong> If you have read this form and have decided to participate in this project, please understand your participation is voluntary and you have the right to withdraw your consent or discontinue participation at any time without penalty or loss of benefits to which you are otherwise entitled. The alternative is not to participate. You have the right to refuse to answer particular questions. The results of this research study may be presented at scientific or professional meetings or published in scientific journals. Your individual privacy will be maintained in all published and written data resulting from the study. In accordance with scientific norms, the data from this study may be used or shared with other researchers for future research (after removing personally identifying information) without additional consent from you.</p>

      <p><strong>CONTACT INFORMATION:</strong><br>
      Questions: If you have any questions, concerns or complaints about this research, its procedures, risks and benefits, contact the Protocol Director, Robert Hawkins (<a href=""mailto:rdhawkins@stanford.edu"">rdhawkins@stanford.edu</a>, 217-549-6923).<br>
      Independent Contact: If you are not satisfied with how this study is being conducted, or if you have any concerns, complaints, or general questions about the research or your rights as a participant, please contact the Stanford Institutional Review Board (IRB) to speak to someone independent of the research team at 650-723-2480 or toll free at 1-866-680-2906, or email at <a href=""mailto:irbnon-med@stanford.edu"">irbnon-med@stanford.edu</a>. You can also write to the Stanford IRB, Stanford University, 1705 El Camino Real, Palo Alto, CA 94306.</p>

      <p><strong>Please save or print a copy of this page for your records.</strong></p>
      <p>If you agree to participate in this research, click ""Continue"" below.</p>
    </div>
  ","0","html-button-response","0","2.1.0","29522","J=YES, F=NO","wm053ysadb","0","46","83","10","","","","","","","","","","","","","","","",""
"11813","
    <div style=""max-width: 800px; margin: auto; text-align: left;"">
      <h2>Welcome!</h2>
      <p>Thank you for participating in this study. The experiment consists of three parts:</p>
      <ol>
        <li>An English vocabulary test</li>
        <li>A main task in which you will hear and see words, and decide whether the written word is a real English word</li>
        <li>A brief survey about your background</li>
      </ol>
      <p>Each part will be introduced before it begins.</p>
      <p>Please make sure you are in a quiet environment and can hear audio clearly for the final task.</p>
      <p style=""margin-top: 2em;"">Press any key to begin.</p>
    </div>
  ","Enter","html-keyboard-response","1","2.1.0","41336","J=YES, F=NO","wm053ysadb","0","46","83","10","","","","","","","","","","","","","","","",""
"","","","preload","2","2.1.0","42312","J=YES, F=NO","wm053ysadb","0","46","83","10","true","false","[]","[]","[]","","","","","","","","","","",""
"9887","
    <div style=""max-width: 800px; margin: auto; text-align: left;"">
      <h2>Part 1: Vocabulary Test</h2>
      <p>You will now complete the first part of the study: a short English vocabulary test.</p>
      <p>This test is called <strong>LexTALE</strong> and helps us get a general sense of your English proficiency.</p>
      <p style=""margin-top: 2em;"">Press any key to continue.</p>
    </div>
  ","Enter","html-keyboard-response","3","2.1.0","52200","J=YES, F=NO","wm053ysadb","0","46","83","10","","","","","","","","","","","","","","","",""
"28848","
    <div style=""max-width: 800px; margin: auto; text-align: left;"">
      <h2>LexTALE Vocabulary Test</h2>
      <p>In this test, you will see a series of letter strings—one at a time.</p>
      <p>Your task is to decide whether each string is a real English word.</p>
      <p><strong>Key responses:</strong></p>
      <ul>
        <li><strong>J</strong> = YES (real English word)</li>
        <li><strong>F</strong> = NO (not a real English word)</li>
      </ul>
      <p>There is no time limit, but please try to be accurate.</p>
      <p style=""margin-top: 2em;"">Press any key to begin.</p>
    </div>
  ","Enter","html-keyboard-response","4","2.1.0","81048","J=YES, F=NO","wm053ysadb","0","46","83","10","","","","","","","","","","","","","","","",""
"2431","
  <p style=""font-size: 40px;"">platery</p>
  <p style=""font-size: 16px;"">J = YES &nbsp;&nbsp;&nbsp; F = NO</p>
","j","html-keyboard-response","5","2.1.0","83480","J=YES, F=NO","wm053ysadb","0","46","83","10","","","","","","lextale","false","true","","","","","","","",""
"1776","
  <p style=""font-size: 40px;"">denial</p>
  <p style=""font-size: 16px;"">J = YES &nbsp;&nbsp;&nbsp; F = NO</p>
","j","html-keyboard-response","6","2.1.0","85256","J=YES, F=NO","wm053ysadb","0","46","83","10","","","","","","lextale","true","true","","","","","","","",""
"5391","
  <p style=""font-size: 40px;"">marrit</p>
  <p style=""font-size: 16px;"">J = YES &nbsp;&nbsp;&nbsp; F = NO</p>
","f","html-keyboard-response","7","2.1.0","90647","J=YES, F=NO","wm053ysadb","0","46","83","10","","","","","","lextale","false","true","","","","","","","",""
"2112","
  <p style=""font-size: 40px;"">bottle</p>
  <p style=""font-size: 16px;"">J = YES &nbsp;&nbsp;&nbsp; F = NO</p>
","j","html-keyboard-response","8","2.1.0","92760","J=YES, F=NO","wm053ysadb","0","46","83","10","","","","","","lextale","true","false","","","","","","","",""
"1774","
  <p style=""font-size: 40px;"">birst</p>
  <p style=""font-size: 16px;"">J = YES &nbsp;&nbsp;&nbsp; F = NO</p>
","j","html-keyboard-response","9","2.1.0","94535","J=YES, F=NO","wm053ysadb","0","46","83","10","","","","","","lextale","false","false","","","","","","","",""
"1408","
  <p style=""font-size: 40px;"">envy</p>
  <p style=""font-size: 16px;"">J = YES &nbsp;&nbsp;&nbsp; F = NO</p>
","j","html-keyboard-response","10","2.1.0","95943","J=YES, F=NO","wm053ysadb","0","46","83","10","","","","","","lextale","true","false","","","","","","","",""
"1471","
  <p style=""font-size: 40px;"">brang</p>
  <p style=""font-size: 16px;"">J = YES &nbsp;&nbsp;&nbsp; F = NO</p>
","j","html-keyboard-response","11","2.1.0","97415","J=YES, F=NO","wm053ysadb","0","46","83","10","","","","","","lextale","false","false","","","","","","","",""
"703","
  <p style=""font-size: 40px;"">huge</p>
  <p style=""font-size: 16px;"">J = YES &nbsp;&nbsp;&nbsp; F = NO</p>
","j","html-keyboard-response","12","2.1.0","98119","J=YES, F=NO","wm053ysadb","0","46","83","10","","","","","","lextale","true","false","","","","","","","",""
"1104","
  <p style=""font-size: 40px;"">plove</p>
  <p style=""font-size: 16px;"">J = YES &nbsp;&nbsp;&nbsp; F = NO</p>
","j","html-keyboard-response","13","2.1.0","99224","J=YES, F=NO","wm053ysadb","0","46","83","10","","","","","","lextale","false","false","","","","","","","",""
"798","
  <p style=""font-size: 40px;"">border</p>
  <p style=""font-size: 16px;"">J = YES &nbsp;&nbsp;&nbsp; F = NO</p>
","j","html-keyboard-response","14","2.1.0","100023","J=YES, F=NO","wm053ysadb","0","46","83","10","","","","","","lextale","true","false","","","","","","","",""
"1648","
  <p style=""font-size: 40px;"">flimsy</p>
  <p style=""font-size: 16px;"">J = YES &nbsp;&nbsp;&nbsp; F = NO</p>
","j","html-keyboard-response","15","2.1.0","101672","J=YES, F=NO","wm053ysadb","0","46","83","10","","","","","","lextale","true","false","","","","","","","",""
"783","
  <p style=""font-size: 40px;"">drain</p>
  <p style=""font-size: 16px;"">J = YES &nbsp;&nbsp;&nbsp; F = NO</p>
","j","html-keyboard-response","16","2.1.0","102455","J=YES, F=NO","wm053ysadb","0","46","83","10","","","","","","lextale","true","false","","","","","","","",""
"992","
  <p style=""font-size: 40px;"">twindle</p>
  <p style=""font-size: 16px;"">J = YES &nbsp;&nbsp;&nbsp; F = NO</p>
","j","html-keyboard-response","17","2.1.0","103448","J=YES, F=NO","wm053ysadb","0","46","83","10","","","","","","lextale","false","false","","","","","","","",""
"767","
  <p style=""font-size: 40px;"">propose</p>
  <p style=""font-size: 16px;"">J = YES &nbsp;&nbsp;&nbsp; F = NO</p>
","j","html-keyboard-response","18","2.1.0","104215","J=YES, F=NO","wm053ysadb","0","46","83","10","","","","","","lextale","true","false","","","","","","","",""
"1648","
  <p style=""font-size: 40px;"">forlay</p>
  <p style=""font-size: 16px;"">J = YES &nbsp;&nbsp;&nbsp; F = NO</p>
","j","html-keyboard-response","19","2.1.0","105863","J=YES, F=NO","wm053ysadb","0","46","83","10","","","","","","lextale","false","false","","","","","","","",""
"1040","
  <p style=""font-size: 40px;"">tenant</p>
  <p style=""font-size: 16px;"">J = YES &nbsp;&nbsp;&nbsp; F = NO</p>
","j","html-keyboard-response","20","2.1.0","106904","J=YES, F=NO","wm053ysadb","0","46","83","10","","","","","","lextale","true","false","","","","","","","",""
"591","
  <p style=""font-size: 40px;"">strain</p>
  <p style=""font-size: 16px;"">J = YES &nbsp;&nbsp;&nbsp; F = NO</p>
","j","html-keyboard-response","21","2.1.0","107495","J=YES, F=NO","wm053ysadb","0","46","83","10","","","","","","lextale","true","false","","","","","","","",""
"1168","
  <p style=""font-size: 40px;"">holster</p>
  <p style=""font-size: 16px;"">J = YES &nbsp;&nbsp;&nbsp; F = NO</p>
","j","html-keyboard-response","22","2.1.0","108664","J=YES, F=NO","wm053ysadb","0","46","83","10","","","","","","lextale","true","false","","","","","","","",""
"751","
  <p style=""font-size: 40px;"">hinder</p>
  <p style=""font-size: 16px;"">J = YES &nbsp;&nbsp;&nbsp; F = NO</p>
","j","html-keyboard-response","23","2.1.0","109415","J=YES, F=NO","wm053ysadb","0","46","83","10","","","","","","lextale","true","false","","","","","","","",""
"720","
  <p style=""font-size: 40px;"">swindle</p>
  <p style=""font-size: 16px;"">J = YES &nbsp;&nbsp;&nbsp; F = NO</p>
","j","html-keyboard-response","24","2.1.0","110136","J=YES, F=NO","wm053ysadb","0","46","83","10","","","","","","lextale","true","false","","","","","","","",""
"1423","
  <p style=""font-size: 40px;"">nuder</p>
  <p style=""font-size: 16px;"">J = YES &nbsp;&nbsp;&nbsp; F = NO</p>
","j","html-keyboard-response","25","2.1.0","111559","J=YES, F=NO","wm053ysadb","0","46","83","10","","","","","","lextale","false","false","","","","","","","",""
"559","
  <p style=""font-size: 40px;"">pillow</p>
  <p style=""font-size: 16px;"">J = YES &nbsp;&nbsp;&nbsp; F = NO</p>
","j","html-keyboard-response","26","2.1.0","112119","J=YES, F=NO","wm053ysadb","0","46","83","10","","","","","","lextale","true","false","","","","","","","",""
"671","
  <p style=""font-size: 40px;"">shumble</p>
  <p style=""font-size: 16px;"">J = YES &nbsp;&nbsp;&nbsp; F = NO</p>
","j","html-keyboard-response","27","2.1.0","112790","J=YES, F=NO","wm053ysadb","0","46","83","10","","","","","","lextale","false","false","","","","","","","",""
"833","
  <p style=""font-size: 40px;"">thirst</p>
  <p style=""font-size: 16px;"">J = YES &nbsp;&nbsp;&nbsp; F = NO</p>
","j","html-keyboard-response","28","2.1.0","113624","J=YES, F=NO","wm053ysadb","0","46","83","10","","","","","","lextale","true","false","","","","","","","",""
"879","
  <p style=""font-size: 40px;"">unsail</p>
  <p style=""font-size: 16px;"">J = YES &nbsp;&nbsp;&nbsp; F = NO</p>
","j","html-keyboard-response","29","2.1.0","114504","J=YES, F=NO","wm053ysadb","0","46","83","10","","","","","","lextale","false","false","","","","","","","",""
"959","
  <p style=""font-size: 40px;"">rifle</p>
  <p style=""font-size: 16px;"">J = YES &nbsp;&nbsp;&nbsp; F = NO</p>
","j","html-keyboard-response","30","2.1.0","115463","J=YES, F=NO","wm053ysadb","0","46","83","10","","","","","","lextale","true","false","","","","","","","",""
"863","
  <p style=""font-size: 40px;"">mush</p>
  <p style=""font-size: 16px;"">J = YES &nbsp;&nbsp;&nbsp; F = NO</p>
","j","html-keyboard-response","31","2.1.0","116326","J=YES, F=NO","wm053ysadb","0","46","83","10","","","","","","lextale","false","false","","","","","","","",""
"1104","
  <p style=""font-size: 40px;"">drench</p>
  <p style=""font-size: 16px;"">J = YES &nbsp;&nbsp;&nbsp; F = NO</p>
","j","html-keyboard-response","32","2.1.0","117431","J=YES, F=NO","wm053ysadb","0","46","83","10","","","","","","lextale","true","false","","","","","","","",""
"1055","
  <p style=""font-size: 40px;"">snirt</p>
  <p style=""font-size: 16px;"">J = YES &nbsp;&nbsp;&nbsp; F = NO</p>
","j","html-keyboard-response","33","2.1.0","118487","J=YES, F=NO","wm053ysadb","0","46","83","10","","","","","","lextale","false","false","","","","","","","",""
"655","
  <p style=""font-size: 40px;"">bitter</p>
  <p style=""font-size: 16px;"">J = YES &nbsp;&nbsp;&nbsp; F = NO</p>
","j","html-keyboard-response","34","2.1.0","119142","J=YES, F=NO","wm053ysadb","0","46","83","10","","","","","","lextale","true","false","","","","","","","",""
"1024","
  <p style=""font-size: 40px;"">pliff</p>
  <p style=""font-size: 16px;"">J = YES &nbsp;&nbsp;&nbsp; F = NO</p>
","j","html-keyboard-response","35","2.1.0","120167","J=YES, F=NO","wm053ysadb","0","46","83","10","","","","","","lextale","false","false","","","","","","","",""
"672","
  <p style=""font-size: 40px;"">tablet</p>
  <p style=""font-size: 16px;"">J = YES &nbsp;&nbsp;&nbsp; F = NO</p>
","j","html-keyboard-response","36","2.1.0","120839","J=YES, F=NO","wm053ysadb","0","46","83","10","","","","","","lextale","true","false","","","","","","","",""
"944","
  <p style=""font-size: 40px;"">glimmer</p>
  <p style=""font-size: 16px;"">J = YES &nbsp;&nbsp;&nbsp; F = NO</p>
","j","html-keyboard-response","37","2.1.0","121784","J=YES, F=NO","wm053ysadb","0","46","83","10","","","","","","lextale","true","false","","","","","","","",""
"638","
  <p style=""font-size: 40px;"">slink</p>
  <p style=""font-size: 16px;"">J = YES &nbsp;&nbsp;&nbsp; F = NO</p>
","j","html-keyboard-response","38","2.1.0","122423","J=YES, F=NO","wm053ysadb","0","46","83","10","","","","","","lextale","true","false","","","","","","","",""
"528","
  <p style=""font-size: 40px;"">clever</p>
  <p style=""font-size: 16px;"">J = YES &nbsp;&nbsp;&nbsp; F = NO</p>
","j","html-keyboard-response","39","2.1.0","122951","J=YES, F=NO","wm053ysadb","0","46","83","10","","","","","","lextale","true","false","","","","","","","",""
"1392","
  <p style=""font-size: 40px;"">grum</p>
  <p style=""font-size: 16px;"">J = YES &nbsp;&nbsp;&nbsp; F = NO</p>
","j","html-keyboard-response","40","2.1.0","124344","J=YES, F=NO","wm053ysadb","0","46","83","10","","","","","","lextale","false","false","","","","","","","",""
"831","
  <p style=""font-size: 40px;"">string</p>
  <p style=""font-size: 16px;"">J = YES &nbsp;&nbsp;&nbsp; F = NO</p>
","j","html-keyboard-response","41","2.1.0","125176","J=YES, F=NO","wm053ysadb","0","46","83","10","","","","","","lextale","true","false","","","","","","","",""
"1295","
  <p style=""font-size: 40px;"">plim</p>
  <p style=""font-size: 16px;"">J = YES &nbsp;&nbsp;&nbsp; F = NO</p>
","j","html-keyboard-response","42","2.1.0","126471","J=YES, F=NO","wm053ysadb","0","46","83","10","","","","","","lextale","false","false","","","","","","","",""
"624","
  <p style=""font-size: 40px;"">cable</p>
  <p style=""font-size: 16px;"">J = YES &nbsp;&nbsp;&nbsp; F = NO</p>
","j","html-keyboard-response","43","2.1.0","127096","J=YES, F=NO","wm053ysadb","0","46","83","10","","","","","","lextale","true","false","","","","","","","",""
"1071","
  <p style=""font-size: 40px;"">shrivel</p>
  <p style=""font-size: 16px;"">J = YES &nbsp;&nbsp;&nbsp; F = NO</p>
","j","html-keyboard-response","44","2.1.0","128167","J=YES, F=NO","wm053ysadb","0","46","83","10","","","","","","lextale","true","false","","","","","","","",""
"1151","
  <p style=""font-size: 40px;"">tarnish</p>
  <p style=""font-size: 16px;"">J = YES &nbsp;&nbsp;&nbsp; F = NO</p>
","j","html-keyboard-response","45","2.1.0","129319","J=YES, F=NO","wm053ysadb","0","46","83","10","","","","","","lextale","true","false","","","","","","","",""
"640","
  <p style=""font-size: 40px;"">blim</p>
  <p style=""font-size: 16px;"">J = YES &nbsp;&nbsp;&nbsp; F = NO</p>
","j","html-keyboard-response","46","2.1.0","129959","J=YES, F=NO","wm053ysadb","0","46","83","10","","","","","","lextale","false","false","","","","","","","",""
"1182","
  <p style=""font-size: 40px;"">stifle</p>
  <p style=""font-size: 16px;"">J = YES &nbsp;&nbsp;&nbsp; F = NO</p>
","j","html-keyboard-response","47","2.1.0","131142","J=YES, F=NO","wm053ysadb","0","46","83","10","","","","","","lextale","true","false","","","","","","","",""
"2159","
  <p style=""font-size: 40px;"">bint</p>
  <p style=""font-size: 16px;"">J = YES &nbsp;&nbsp;&nbsp; F = NO</p>
","f","html-keyboard-response","48","2.1.0","133303","J=YES, F=NO","wm053ysadb","0","46","83","10","","","","","","lextale","false","false","","","","","","","",""
"768","
  <p style=""font-size: 40px;"">purple</p>
  <p style=""font-size: 16px;"">J = YES &nbsp;&nbsp;&nbsp; F = NO</p>
","j","html-keyboard-response","49","2.1.0","134071","J=YES, F=NO","wm053ysadb","0","46","83","10","","","","","","lextale","true","false","","","","","","","",""
"673","
  <p style=""font-size: 40px;"">wriggle</p>
  <p style=""font-size: 16px;"">J = YES &nbsp;&nbsp;&nbsp; F = NO</p>
","j","html-keyboard-response","50","2.1.0","134745","J=YES, F=NO","wm053ysadb","0","46","83","10","","","","","","lextale","true","false","","","","","","","",""
"1806","
  <p style=""font-size: 40px;"">mangle</p>
  <p style=""font-size: 16px;"">J = YES &nbsp;&nbsp;&nbsp; F = NO</p>
","f","html-keyboard-response","51","2.1.0","136551","J=YES, F=NO","wm053ysadb","0","46","83","10","","","","","","lextale","true","false","","","","","","","",""
"2064","
  <p style=""font-size: 40px;"">shramp</p>
  <p style=""font-size: 16px;"">J = YES &nbsp;&nbsp;&nbsp; F = NO</p>
","j","html-keyboard-response","52","2.1.0","138615","J=YES, F=NO","wm053ysadb","0","46","83","10","","","","","","lextale","false","false","","","","","","","",""
"608","
  <p style=""font-size: 40px;"">flirt</p>
  <p style=""font-size: 16px;"">J = YES &nbsp;&nbsp;&nbsp; F = NO</p>
","j","html-keyboard-response","53","2.1.0","139224","J=YES, F=NO","wm053ysadb","0","46","83","10","","","","","","lextale","true","false","","","","","","","",""
"543","
  <p style=""font-size: 40px;"">frip</p>
  <p style=""font-size: 16px;"">J = YES &nbsp;&nbsp;&nbsp; F = NO</p>
","j","html-keyboard-response","54","2.1.0","139768","J=YES, F=NO","wm053ysadb","0","46","83","10","","","","","","lextale","false","false","","","","","","","",""
"1503","
  <p style=""font-size: 40px;"">tangle</p>
  <p style=""font-size: 16px;"">J = YES &nbsp;&nbsp;&nbsp; F = NO</p>
","j","html-keyboard-response","55","2.1.0","141271","J=YES, F=NO","wm053ysadb","0","46","83","10","","","","","","lextale","true","false","","","","","","","",""
"768","
  <p style=""font-size: 40px;"">crumble</p>
  <p style=""font-size: 16px;"">J = YES &nbsp;&nbsp;&nbsp; F = NO</p>
","j","html-keyboard-response","56","2.1.0","142039","J=YES, F=NO","wm053ysadb","0","46","83","10","","","","","","lextale","true","false","","","","","","","",""
"687","
  <p style=""font-size: 40px;"">wrinkle</p>
  <p style=""font-size: 16px;"">J = YES &nbsp;&nbsp;&nbsp; F = NO</p>
","j","html-keyboard-response","57","2.1.0","142727","J=YES, F=NO","wm053ysadb","0","46","83","10","","","","","","lextale","true","false","","","","","","","",""
"976","
  <p style=""font-size: 40px;"">slumb</p>
  <p style=""font-size: 16px;"">J = YES &nbsp;&nbsp;&nbsp; F = NO</p>
","j","html-keyboard-response","58","2.1.0","143704","J=YES, F=NO","wm053ysadb","0","46","83","10","","","","","","lextale","false","false","","","","","","","",""
"542","
  <p style=""font-size: 40px;"">jungle</p>
  <p style=""font-size: 16px;"">J = YES &nbsp;&nbsp;&nbsp; F = NO</p>
","j","html-keyboard-response","59","2.1.0","144247","J=YES, F=NO","wm053ysadb","0","46","83","10","","","","","","lextale","true","false","","","","","","","",""
"1281","
  <p style=""font-size: 40px;"">frolick</p>
  <p style=""font-size: 16px;"">J = YES &nbsp;&nbsp;&nbsp; F = NO</p>
","f","html-keyboard-response","60","2.1.0","145528","J=YES, F=NO","wm053ysadb","0","46","83","10","","","","","","lextale","false","false","","","","","","","",""
"3694","
      <h2>LexTALE Test Completed</h2>
      <p>Your LexTALE vocabulary score is: <strong>46%</strong></p>
      <p>Press any key to continue.</p>
    ","Enter","html-keyboard-response","61","2.1.0","149223","J=YES, F=NO","wm053ysadb","0","46","83","10","","","","","","","","","","","","","","","",""
"5744","
    <div style=""max-width: 800px; margin: auto; text-align: left;"">
      <h2>Break Time</h2>
      <p>You have completed the first part of the study.</p>
      <p>You may take a short <strong>30-second break</strong> before continuing.</p>
      <p>When you’re ready, press any key to continue to the final task.</p>
    </div>
  ","Enter","html-keyboard-response","62","2.1.0","154968","J=YES, F=NO","wm053ysadb","0","46","83","10","","","","","","","","","","","","","","","",""
"25999","
    <div style=""max-width: 800px; margin: auto; text-align: left;"">
      <h2>Part 2: Lexical Decision Task</h2>
      <p>You will now begin the second part of the study.</p>
      <p>Each trial will follow this sequence:</p>
      <ul>
        <li>A fixation cross (+) appears at the center of the screen.</li>
        <li>You will hear a short beep followed by a spoken word.</li>
        <li>A written word will appear briefly on the screen.</li>
      </ul>
      <p>Your task is to judge whether the <strong>written word</strong> is a real English word.</p>
      <p style=""margin-top: 1em;""><strong>Key responses:</strong></p>
      <ul>
        <li><strong>J</strong> = YES (real English word)</li>
        <li><strong>F</strong> = NO (not a real English word)</li>
      </ul>
      <p>Please respond as quickly and accurately as you can.</p>
      <p style=""margin-top: 2em;"">Press any key to continue.</p>
    </div>
  ","Enter","html-keyboard-response","63","2.1.0","180968","J=YES, F=NO","wm053ysadb","0","46","83","10","","","","","","","","","","","","","","","",""
"7343","
    <div style=""max-width: 800px; margin: auto; text-align: left;"">
      <h2>Before You Begin</h2>
      <p>Make sure your sound is turned on.</p>
      <p>You will hear audio during each trial, but your decision should be based only on the <strong>written word</strong> you see on the screen.</p>
      <p><strong>Reminder:</strong></p>
      <ul>
        <li><strong>J</strong> = YES (real English word)</li>
        <li><strong>F</strong> = NO (not a real English word)</li>
      </ul>
      <p style=""margin-top: 2em;"">Press any key when you are ready to begin.</p>
    </div>
  ","Enter","html-keyboard-response","64","2.1.0","188311","J=YES, F=NO","wm053ysadb","0","46","83","10","","","","","","","","","","","","","","","",""
"5343","
    <div style=""max-width: 800px; margin: auto; text-align: left;"">
      <h2>Part 2: Practice Trials</h2>
      <p>You will now complete a few <strong>practice trials</strong> to get familiar with the task.</p>
      <p>These trials are <strong>not scored</strong> and are only to help you get used to the format.</p>
      <p style=""margin-top: 2em;"">Press any key to begin.</p>
    </div>
  ","Enter","html-keyboard-response","65","2.1.0","193655","J=YES, F=NO","wm053ysadb","0","46","83","10","","","","","","","","","","","","","","","",""
"3312","<p>Starting practice block 1 of 2. Press any key to continue.</p>","Enter","html-keyboard-response","66","2.1.0","196967","J=YES, F=NO","wm053ysadb","0","46","83","10","","","","","","","","","","","","","","","",""
"null","<p style=""font-size: 50px;"">+</p>","null","html-keyboard-response","67","2.1.0","197271","J=YES, F=NO","wm053ysadb","0","46","83","10","","","","","","","","","","","","","","","",""
"null","audio/beep-329314.mp3","null","audio-keyboard-response","68","2.1.0","199055","J=YES, F=NO","wm053ysadb","0","46","83","10","","","","","","","","","","","","","","","",""
"null","audio/hawk1.wav","null","audio-keyboard-response","69","2.1.0","199706","J=YES, F=NO","wm053ysadb","0","46","83","10","","","","","","","","","","","","","","","",""
"null","
          <p id=""word"" style=""font-size: 40px;"">ostach</p>
          <p style=""font-size: 16px;"">J = YES &nbsp;&nbsp;&nbsp; F = NO</p>
        ","null","html-keyboard-response","70","2.1.0","201220","J=YES, F=NO","wm053ysadb","0","46","83","10","","","","","","","","","ostach","hawk1","pseudoword","pseudoword","f","false","",""
"null","<p style=""font-size: 50px;"">+</p>","null","html-keyboard-response","71","2.1.0","201533","J=YES, F=NO","wm053ysadb","0","46","83","10","","","","","","","","","","","","","","","",""
"null","audio/beep-329314.mp3","null","audio-keyboard-response","72","2.1.0","203065","J=YES, F=NO","wm053ysadb","0","46","83","10","","","","","","","","","","","","","","","",""
"null","audio/floor.wav","null","audio-keyboard-response","73","2.1.0","203674","J=YES, F=NO","wm053ysadb","0","46","83","10","","","","","","","","","","","","","","","",""
"null","
          <p id=""word"" style=""font-size: 40px;"">mop</p>
          <p style=""font-size: 16px;"">J = YES &nbsp;&nbsp;&nbsp; F = NO</p>
        ","null","html-keyboard-response","74","2.1.0","205190","J=YES, F=NO","wm053ysadb","0","46","83","10","","","","","","","","","mop","floor","filler","filler","j","false","",""
"null","<p style=""font-size: 50px;"">+</p>","null","html-keyboard-response","75","2.1.0","205501","J=YES, F=NO","wm053ysadb","0","46","83","10","","","","","","","","","","","","","","","",""
"null","audio/beep-329314.mp3","null","audio-keyboard-response","76","2.1.0","207034","J=YES, F=NO","wm053ysadb","0","46","83","10","","","","","","","","","","","","","","","",""
"null","audio/pattern.wav","null","audio-keyboard-response","77","2.1.0","207599","J=YES, F=NO","wm053ysadb","0","46","83","10","","","","","","","","","","","","","","","",""
"1031","
          <p id=""word"" style=""font-size: 40px;"">tug</p>
          <p style=""font-size: 16px;"">J = YES &nbsp;&nbsp;&nbsp; F = NO</p>
        ","f","html-keyboard-response","78","2.1.0","208631","J=YES, F=NO","wm053ysadb","0","46","83","10","","","","","","","","","tug","pattern","filler","filler","j","false","",""
"null","<p style=""font-size: 50px;"">+</p>","null","html-keyboard-response","79","2.1.0","208943","J=YES, F=NO","wm053ysadb","0","46","83","10","","","","","","","","","","","","","","","",""
"null","audio/beep-329314.mp3","null","audio-keyboard-response","80","2.1.0","210469","J=YES, F=NO","wm053ysadb","0","46","83","10","","","","","","","","","","","","","","","",""
"null","audio/emotion.wav","null","audio-keyboard-response","81","2.1.0","211183","J=YES, F=NO","wm053ysadb","0","46","83","10","","","","","","","","","","","","","","","",""
"904","
          <p id=""word"" style=""font-size: 40px;"">devering</p>
          <p style=""font-size: 16px;"">J = YES &nbsp;&nbsp;&nbsp; F = NO</p>
        ","j","html-keyboard-response","82","2.1.0","212088","J=YES, F=NO","wm053ysadb","0","46","83","10","","","","","","","","","devering","emotion","pseudoword","pseudoword","f","false","",""
"null","<p style=""font-size: 50px;"">+</p>","null","html-keyboard-response","83","2.1.0","212401","J=YES, F=NO","wm053ysadb","0","46","83","10","","","","","","","","","","","","","","","",""
"null","audio/beep-329314.mp3","null","audio-keyboard-response","84","2.1.0","213925","J=YES, F=NO","wm053ysadb","0","46","83","10","","","","","","","","","","","","","","","",""
"null","audio/brain.wav","null","audio-keyboard-response","85","2.1.0","214490","J=YES, F=NO","wm053ysadb","0","46","83","10","","","","","","","","","","","","","","","",""
"780","
          <p id=""word"" style=""font-size: 40px;"">throw</p>
          <p style=""font-size: 16px;"">J = YES &nbsp;&nbsp;&nbsp; F = NO</p>
        ","j","html-keyboard-response","86","2.1.0","215272","J=YES, F=NO","wm053ysadb","0","46","83","10","","","","","","","","","throw","brain","filler","filler","j","true","",""
"null","<p style=""font-size: 50px;"">+</p>","null","html-keyboard-response","87","2.1.0","215576","J=YES, F=NO","wm053ysadb","0","46","83","10","","","","","","","","","","","","","","","",""
"null","audio/beep-329314.mp3","null","audio-keyboard-response","88","2.1.0","217103","J=YES, F=NO","wm053ysadb","0","46","83","10","","","","","","","","","","","","","","","",""
"null","audio/uncle1.wav","null","audio-keyboard-response","89","2.1.0","217583","J=YES, F=NO","wm053ysadb","0","46","83","10","","","","","","","","","","","","","","","",""
"null","
          <p id=""word"" style=""font-size: 40px;"">dramble</p>
          <p style=""font-size: 16px;"">J = YES &nbsp;&nbsp;&nbsp; F = NO</p>
        ","null","html-keyboard-response","90","2.1.0","219085","J=YES, F=NO","wm053ysadb","0","46","83","10","","","","","","","","","dramble","uncle1","pseudoword","pseudoword","f","false","",""
"null","<p style=""font-size: 50px;"">+</p>","null","html-keyboard-response","91","2.1.0","219398","J=YES, F=NO","wm053ysadb","0","46","83","10","","","","","","","","","","","","","","","",""
"null","audio/beep-329314.mp3","null","audio-keyboard-response","92","2.1.0","220922","J=YES, F=NO","wm053ysadb","0","46","83","10","","","","","","","","","","","","","","","",""
"null","audio/camera1.wav","null","audio-keyboard-response","93","2.1.0","221487","J=YES, F=NO","wm053ysadb","0","46","83","10","","","","","","","","","","","","","","","",""
"1352","
          <p id=""word"" style=""font-size: 40px;"">stir</p>
          <p style=""font-size: 16px;"">J = YES &nbsp;&nbsp;&nbsp; F = NO</p>
        ","j","html-keyboard-response","94","2.1.0","222839","J=YES, F=NO","wm053ysadb","0","46","83","10","","","","","","","","","stir","camera1","filler","filler","j","true","",""
"null","<p style=""font-size: 50px;"">+</p>","null","html-keyboard-response","95","2.1.0","223151","J=YES, F=NO","wm053ysadb","0","46","83","10","","","","","","","","","","","","","","","",""
"null","audio/beep-329314.mp3","null","audio-keyboard-response","96","2.1.0","224677","J=YES, F=NO","wm053ysadb","0","46","83","10","","","","","","","","","","","","","","","",""
"null","audio/effort.wav","null","audio-keyboard-response","97","2.1.0","225327","J=YES, F=NO","wm053ysadb","0","46","83","10","","","","","","","","","","","","","","","",""
"1175","
          <p id=""word"" style=""font-size: 40px;"">whonk</p>
          <p style=""font-size: 16px;"">J = YES &nbsp;&nbsp;&nbsp; F = NO</p>
        ","j","html-keyboard-response","98","2.1.0","226503","J=YES, F=NO","wm053ysadb","0","46","83","10","","","","","","","","","whonk","effort","pseudoword","pseudoword","f","false","",""
"null","<p style=""font-size: 50px;"">+</p>","null","html-keyboard-response","99","2.1.0","226819","J=YES, F=NO","wm053ysadb","0","46","83","10","","","","","","","","","","","","","","","",""
"null","audio/beep-329314.mp3","null","audio-keyboard-response","100","2.1.0","228346","J=YES, F=NO","wm053ysadb","0","46","83","10","","","","","","","","","","","","","","","",""
"null","audio/breath.wav","null","audio-keyboard-response","101","2.1.0","228911","J=YES, F=NO","wm053ysadb","0","46","83","10","","","","","","","","","","","","","","","",""
"695","
          <p id=""word"" style=""font-size: 40px;"">pack</p>
          <p style=""font-size: 16px;"">J = YES &nbsp;&nbsp;&nbsp; F = NO</p>
        ","j","html-keyboard-response","102","2.1.0","229607","J=YES, F=NO","wm053ysadb","0","46","83","10","","","","","","","","","pack","breath","filler","filler","j","true","",""
"null","<p style=""font-size: 50px;"">+</p>","null","html-keyboard-response","103","2.1.0","229911","J=YES, F=NO","wm053ysadb","0","46","83","10","","","","","","","","","","","","","","","",""
"null","audio/beep-329314.mp3","null","audio-keyboard-response","104","2.1.0","231440","J=YES, F=NO","wm053ysadb","0","46","83","10","","","","","","","","","","","","","","","",""
"null","audio/meal.wav","null","audio-keyboard-response","105","2.1.0","231940","J=YES, F=NO","wm053ysadb","0","46","83","10","","","","","","","","","","","","","","","",""
"835","
          <p id=""word"" style=""font-size: 40px;"">gallite</p>
          <p style=""font-size: 16px;"">J = YES &nbsp;&nbsp;&nbsp; F = NO</p>
        ","f","html-keyboard-response","106","2.1.0","232776","J=YES, F=NO","wm053ysadb","0","46","83","10","","","","","","","","","gallite","meal","pseudoword","pseudoword","f","true","",""
"null","<p style=""font-size: 50px;"">+</p>","null","html-keyboard-response","107","2.1.0","233089","J=YES, F=NO","wm053ysadb","0","46","83","10","","","","","","","","","","","","","","","",""
"null","audio/beep-329314.mp3","null","audio-keyboard-response","108","2.1.0","234618","J=YES, F=NO","wm053ysadb","0","46","83","10","","","","","","","","","","","","","","","",""
"null","audio/road.wav","null","audio-keyboard-response","109","2.1.0","235119","J=YES, F=NO","wm053ysadb","0","46","83","10","","","","","","","","","","","","","","","",""
"1303","
          <p id=""word"" style=""font-size: 40px;"">wappings</p>
          <p style=""font-size: 16px;"">J = YES &nbsp;&nbsp;&nbsp; F = NO</p>
        ","f","html-keyboard-response","110","2.1.0","236423","J=YES, F=NO","wm053ysadb","0","46","83","10","","","","","","","","","wappings","road","pseudoword","pseudoword","f","true","",""
"null","<p style=""font-size: 50px;"">+</p>","null","html-keyboard-response","111","2.1.0","236724","J=YES, F=NO","wm053ysadb","0","46","83","10","","","","","","","","","","","","","","","",""
"null","audio/beep-329314.mp3","null","audio-keyboard-response","112","2.1.0","238245","J=YES, F=NO","wm053ysadb","0","46","83","10","","","","","","","","","","","","","","","",""
"null","audio/haste1.wav","null","audio-keyboard-response","113","2.1.0","238852","J=YES, F=NO","wm053ysadb","0","46","83","10","","","","","","","","","","","","","","","",""
"1267","
          <p id=""word"" style=""font-size: 40px;"">coraconate</p>
          <p style=""font-size: 16px;"">J = YES &nbsp;&nbsp;&nbsp; F = NO</p>
        ","f","html-keyboard-response","114","2.1.0","240120","J=YES, F=NO","wm053ysadb","0","46","83","10","","","","","","","","","coraconate","haste1","pseudoword","pseudoword","f","true","",""
"5087","<p>Starting practice block 2 of 2. Press any key to continue.</p>","Enter","html-keyboard-response","115","2.1.0","245207","J=YES, F=NO","wm053ysadb","0","46","83","10","","","","","","","","","","","","","","","",""
"null","<p style=""font-size: 50px;"">+</p>","null","html-keyboard-response","116","2.1.0","245517","J=YES, F=NO","wm053ysadb","0","46","83","10","","","","","","","","","","","","","","","",""
"null","audio/beep-329314.mp3","null","audio-keyboard-response","117","2.1.0","247034","J=YES, F=NO","wm053ysadb","0","46","83","10","","","","","","","","","","","","","","","",""
"null","audio/mouth1.wav","null","audio-keyboard-response","118","2.1.0","247663","J=YES, F=NO","wm053ysadb","0","46","83","10","","","","","","","","","","","","","","","",""
"760","
          <p id=""word"" style=""font-size: 40px;"">spolial</p>
          <p style=""font-size: 16px;"">J = YES &nbsp;&nbsp;&nbsp; F = NO</p>
        ","f","html-keyboard-response","119","2.1.0","248423","J=YES, F=NO","wm053ysadb","0","46","83","10","","","","","","","","","spolial","mouth1","pseudoword","pseudoword","f","true","",""
"null","<p style=""font-size: 50px;"">+</p>","null","html-keyboard-response","120","2.1.0","248727","J=YES, F=NO","wm053ysadb","0","46","83","10","","","","","","","","","","","","","","","",""
"null","audio/beep-329314.mp3","null","audio-keyboard-response","121","2.1.0","250255","J=YES, F=NO","wm053ysadb","0","46","83","10","","","","","","","","","","","","","","","",""
"null","audio/weight1.wav","null","audio-keyboard-response","122","2.1.0","250799","J=YES, F=NO","wm053ysadb","0","46","83","10","","","","","","","","","","","","","","","",""
"887","
          <p id=""word"" style=""font-size: 40px;"">crimsh</p>
          <p style=""font-size: 16px;"">J = YES &nbsp;&nbsp;&nbsp; F = NO</p>
        ","f","html-keyboard-response","123","2.1.0","251687","J=YES, F=NO","wm053ysadb","0","46","83","10","","","","","","","","","crimsh","weight1","pseudoword","pseudoword","f","true","",""
"null","<p style=""font-size: 50px;"">+</p>","null","html-keyboard-response","124","2.1.0","252001","J=YES, F=NO","wm053ysadb","0","46","83","10","","","","","","","","","","","","","","","",""
"null","audio/beep-329314.mp3","null","audio-keyboard-response","125","2.1.0","253519","J=YES, F=NO","wm053ysadb","0","46","83","10","","","","","","","","","","","","","","","",""
"null","audio/kettle1.wav","null","audio-keyboard-response","126","2.1.0","254191","J=YES, F=NO","wm053ysadb","0","46","83","10","","","","","","","","","","","","","","","",""
"1191","
          <p id=""word"" style=""font-size: 40px;"">wrap</p>
          <p style=""font-size: 16px;"">J = YES &nbsp;&nbsp;&nbsp; F = NO</p>
        ","j","html-keyboard-response","127","2.1.0","255384","J=YES, F=NO","wm053ysadb","0","46","83","10","","","","","","","","","wrap","kettle1","filler","filler","j","true","",""
"null","<p style=""font-size: 50px;"">+</p>","null","html-keyboard-response","128","2.1.0","255698","J=YES, F=NO","wm053ysadb","0","46","83","10","","","","","","","","","","","","","","","",""
"null","audio/beep-329314.mp3","null","audio-keyboard-response","129","2.1.0","257231","J=YES, F=NO","wm053ysadb","0","46","83","10","","","","","","","","","","","","","","","",""
"null","audio/belief.wav","null","audio-keyboard-response","130","2.1.0","257925","J=YES, F=NO","wm053ysadb","0","46","83","10","","","","","","","","","","","","","","","",""
"642","
          <p id=""word"" style=""font-size: 40px;"">read</p>
          <p style=""font-size: 16px;"">J = YES &nbsp;&nbsp;&nbsp; F = NO</p>
        ","j","html-keyboard-response","131","2.1.0","258567","J=YES, F=NO","wm053ysadb","0","46","83","10","","","","","","","","","read","belief","filler","filler","j","true","",""
"null","<p style=""font-size: 50px;"">+</p>","null","html-keyboard-response","132","2.1.0","258881","J=YES, F=NO","wm053ysadb","0","46","83","10","","","","","","","","","","","","","","","",""
"null","audio/beep-329314.mp3","null","audio-keyboard-response","133","2.1.0","260409","J=YES, F=NO","wm053ysadb","0","46","83","10","","","","","","","","","","","","","","","",""
"null","audio/battle1.wav","null","audio-keyboard-response","134","2.1.0","260932","J=YES, F=NO","wm053ysadb","0","46","83","10","","","","","","","","","","","","","","","",""
"851","
          <p id=""word"" style=""font-size: 40px;"">boil</p>
          <p style=""font-size: 16px;"">J = YES &nbsp;&nbsp;&nbsp; F = NO</p>
        ","j","html-keyboard-response","135","2.1.0","261784","J=YES, F=NO","wm053ysadb","0","46","83","10","","","","","","","","","boil","battle1","filler","filler","j","true","",""
"null","<p style=""font-size: 50px;"">+</p>","null","html-keyboard-response","136","2.1.0","262089","J=YES, F=NO","wm053ysadb","0","46","83","10","","","","","","","","","","","","","","","",""
"null","audio/beep-329314.mp3","null","audio-keyboard-response","137","2.1.0","263610","J=YES, F=NO","wm053ysadb","0","46","83","10","","","","","","","","","","","","","","","",""
"null","audio/menu.wav","null","audio-keyboard-response","138","2.1.0","264260","J=YES, F=NO","wm053ysadb","0","46","83","10","","","","","","","","","","","","","","","",""
"546","
          <p id=""word"" style=""font-size: 40px;"">slice</p>
          <p style=""font-size: 16px;"">J = YES &nbsp;&nbsp;&nbsp; F = NO</p>
        ","j","html-keyboard-response","139","2.1.0","264807","J=YES, F=NO","wm053ysadb","0","46","83","10","","","","","","","","","slice","menu","filler","filler","j","true","",""
"null","<p style=""font-size: 50px;"">+</p>","null","html-keyboard-response","140","2.1.0","265114","J=YES, F=NO","wm053ysadb","0","46","83","10","","","","","","","","","","","","","","","",""
"null","audio/beep-329314.mp3","null","audio-keyboard-response","141","2.1.0","266639","J=YES, F=NO","wm053ysadb","0","46","83","10","","","","","","","","","","","","","","","",""
"null","audio/account1.wav","null","audio-keyboard-response","142","2.1.0","267311","J=YES, F=NO","wm053ysadb","0","46","83","10","","","","","","","","","","","","","","","",""
"727","
          <p id=""word"" style=""font-size: 40px;"">paint</p>
          <p style=""font-size: 16px;"">J = YES &nbsp;&nbsp;&nbsp; F = NO</p>
        ","j","html-keyboard-response","143","2.1.0","268039","J=YES, F=NO","wm053ysadb","0","46","83","10","","","","","","","","","paint","account1","filler","filler","j","true","",""
"null","<p style=""font-size: 50px;"">+</p>","null","html-keyboard-response","144","2.1.0","268349","J=YES, F=NO","wm053ysadb","0","46","83","10","","","","","","","","","","","","","","","",""
"null","audio/beep-329314.mp3","null","audio-keyboard-response","145","2.1.0","269882","J=YES, F=NO","wm053ysadb","0","46","83","10","","","","","","","","","","","","","","","",""
"null","audio/terrain.wav","null","audio-keyboard-response","146","2.1.0","270511","J=YES, F=NO","wm053ysadb","0","46","83","10","","","","","","","","","","","","","","","",""
"null","
          <p id=""word"" style=""font-size: 40px;"">twist</p>
          <p style=""font-size: 16px;"">J = YES &nbsp;&nbsp;&nbsp; F = NO</p>
        ","null","html-keyboard-response","147","2.1.0","272018","J=YES, F=NO","wm053ysadb","0","46","83","10","","","","","","","","","twist","terrain","filler","filler","j","false","",""
"null","<p style=""font-size: 50px;"">+</p>","null","html-keyboard-response","148","2.1.0","272331","J=YES, F=NO","wm053ysadb","0","46","83","10","","","","","","","","","","","","","","","",""
"null","audio/beep-329314.mp3","null","audio-keyboard-response","149","2.1.0","273850","J=YES, F=NO","wm053ysadb","0","46","83","10","","","","","","","","","","","","","","","",""
"null","audio/baby.wav","null","audio-keyboard-response","150","2.1.0","274372","J=YES, F=NO","wm053ysadb","0","46","83","10","","","","","","","","","","","","","","","",""
"851","
          <p id=""word"" style=""font-size: 40px;"">lift</p>
          <p style=""font-size: 16px;"">J = YES &nbsp;&nbsp;&nbsp; F = NO</p>
        ","j","html-keyboard-response","151","2.1.0","275224","J=YES, F=NO","wm053ysadb","0","46","83","10","","","","","","","","","lift","baby","filler","filler","j","true","",""
"null","<p style=""font-size: 50px;"">+</p>","null","html-keyboard-response","152","2.1.0","275525","J=YES, F=NO","wm053ysadb","0","46","83","10","","","","","","","","","","","","","","","",""
"null","audio/beep-329314.mp3","null","audio-keyboard-response","153","2.1.0","277050","J=YES, F=NO","wm053ysadb","0","46","83","10","","","","","","","","","","","","","","","",""
"null","audio/test1.wav","null","audio-keyboard-response","154","2.1.0","277808","J=YES, F=NO","wm053ysadb","0","46","83","10","","","","","","","","","","","","","","","",""
"1015","
          <p id=""word"" style=""font-size: 40px;"">twopch</p>
          <p style=""font-size: 16px;"">J = YES &nbsp;&nbsp;&nbsp; F = NO</p>
        ","f","html-keyboard-response","155","2.1.0","278823","J=YES, F=NO","wm053ysadb","0","46","83","10","","","","","","","","","twopch","test1","pseudoword","pseudoword","f","true","",""
"null","<p style=""font-size: 50px;"">+</p>","null","html-keyboard-response","156","2.1.0","279139","J=YES, F=NO","wm053ysadb","0","46","83","10","","","","","","","","","","","","","","","",""
"null","audio/beep-329314.mp3","null","audio-keyboard-response","157","2.1.0","280655","J=YES, F=NO","wm053ysadb","0","46","83","10","","","","","","","","","","","","","","","",""
"null","audio/tax1.wav","null","audio-keyboard-response","158","2.1.0","281348","J=YES, F=NO","wm053ysadb","0","46","83","10","","","","","","","","","","","","","","","",""
"787","
          <p id=""word"" style=""font-size: 40px;"">snate</p>
          <p style=""font-size: 16px;"">J = YES &nbsp;&nbsp;&nbsp; F = NO</p>
        ","f","html-keyboard-response","159","2.1.0","282136","J=YES, F=NO","wm053ysadb","0","46","83","10","","","","","","","","","snate","tax1","pseudoword","pseudoword","f","true","",""
"null","<p style=""font-size: 50px;"">+</p>","null","html-keyboard-response","160","2.1.0","282452","J=YES, F=NO","wm053ysadb","0","46","83","10","","","","","","","","","","","","","","","",""
"null","audio/beep-329314.mp3","null","audio-keyboard-response","161","2.1.0","283983","J=YES, F=NO","wm053ysadb","0","46","83","10","","","","","","","","","","","","","","","",""
"null","audio/empire.wav","null","audio-keyboard-response","162","2.1.0","284783","J=YES, F=NO","wm053ysadb","0","46","83","10","","","","","","","","","","","","","","","",""
"583","
          <p id=""word"" style=""font-size: 40px;"">slorby</p>
          <p style=""font-size: 16px;"">J = YES &nbsp;&nbsp;&nbsp; F = NO</p>
        ","f","html-keyboard-response","163","2.1.0","285367","J=YES, F=NO","wm053ysadb","0","46","83","10","","","","","","","","","slorby","empire","pseudoword","pseudoword","f","true","",""
"7552","
    <div style=""max-width: 800px; margin: auto; text-align: left;"">
      <h2>Part 2: Main Trials</h2>
      <p>Great job on the practice trials!</p>
      <p>You will now begin the <strong>main set of trials</strong>.</p>
      <p>Remember your key assignments:</p>
      <ul>
        <li><strong>J</strong> = YES (real English word)</li>
        <li><strong>F</strong> = NO (not a real English word)</li>
      </ul>
      <p>Try to respond as <strong>quickly and accurately</strong> as possible.</p>
      <p style=""margin-top: 2em;"">Press any key to begin the main trials.</p>
    </div>
  ","Enter","html-keyboard-response","164","2.1.0","292920","J=YES, F=NO","wm053ysadb","0","46","83","10","","","","","","","","","","","","","","","",""
"3631","<p>Starting main block 1 of 8. Press any key to continue.</p>","Enter","html-keyboard-response","165","2.1.0","296551","J=YES, F=NO","wm053ysadb","0","46","83","10","","","","","","","","","","","","","","","",""
"null","<p style=""font-size: 50px;"">+</p>","null","html-keyboard-response","166","2.1.0","296852","J=YES, F=NO","wm053ysadb","0","46","83","10","","","","","","","","","","","","","","","",""
"null","audio/beep-329314.mp3","null","audio-keyboard-response","167","2.1.0","298339","J=YES, F=NO","wm053ysadb","0","46","83","10","","","","","","","","","","","","","","","",""
"null","audio/ego.wav","null","audio-keyboard-response","168","2.1.0","298873","J=YES, F=NO","wm053ysadb","0","46","83","10","","","","","","","","","","","","","","","",""
"845","
          <p id=""word"" style=""font-size: 40px;"">bruite</p>
          <p style=""font-size: 16px;"">J = YES &nbsp;&nbsp;&nbsp; F = NO</p>
        ","f","html-keyboard-response","169","2.1.0","299719","J=YES, F=NO","wm053ysadb","0","46","83","10","","","","","","","","","bruite","ego","pseudoword","pseudoword","f","true","",""
"null","<p style=""font-size: 50px;"">+</p>","null","html-keyboard-response","170","2.1.0","300028","J=YES, F=NO","wm053ysadb","0","46","83","10","","","","","","","","","","","","","","","",""
"null","audio/beep-329314.mp3","null","audio-keyboard-response","171","2.1.0","301560","J=YES, F=NO","wm053ysadb","0","46","83","10","","","","","","","","","","","","","","","",""
"null","audio/mood1.wav","null","audio-keyboard-response","172","2.1.0","302243","J=YES, F=NO","wm053ysadb","0","46","83","10","","","","","","","","","","","","","","","",""
"564","
          <p id=""word"" style=""font-size: 40px;"">give</p>
          <p style=""font-size: 16px;"">J = YES &nbsp;&nbsp;&nbsp; F = NO</p>
        ","j","html-keyboard-response","173","2.1.0","302808","J=YES, F=NO","wm053ysadb","0","46","83","10","","","","","","","","","give","mood1","unrelated","experimental","j","true","",""
"null","<p style=""font-size: 50px;"">+</p>","null","html-keyboard-response","174","2.1.0","303118","J=YES, F=NO","wm053ysadb","0","46","83","10","","","","","","","","","","","","","","","",""
"null","audio/beep-329314.mp3","null","audio-keyboard-response","175","2.1.0","304654","J=YES, F=NO","wm053ysadb","0","46","83","10","","","","","","","","","","","","","","","",""
"null","audio/dome.wav","null","audio-keyboard-response","176","2.1.0","305080","J=YES, F=NO","wm053ysadb","0","46","83","10","","","","","","","","","","","","","","","",""
"1359","
          <p id=""word"" style=""font-size: 40px;"">scrupliness</p>
          <p style=""font-size: 16px;"">J = YES &nbsp;&nbsp;&nbsp; F = NO</p>
        ","j","html-keyboard-response","177","2.1.0","306439","J=YES, F=NO","wm053ysadb","0","46","83","10","","","","","","","","","scrupliness","dome","pseudoword","pseudoword","f","false","",""
"null","<p style=""font-size: 50px;"">+</p>","null","html-keyboard-response","178","2.1.0","306742","J=YES, F=NO","wm053ysadb","0","46","83","10","","","","","","","","","","","","","","","",""
"null","audio/beep-329314.mp3","null","audio-keyboard-response","179","2.1.0","308259","J=YES, F=NO","wm053ysadb","0","46","83","10","","","","","","","","","","","","","","","",""
"null","audio/neck.wav","null","audio-keyboard-response","180","2.1.0","308813","J=YES, F=NO","wm053ysadb","0","46","83","10","","","","","","","","","","","","","","","",""
"634","
          <p id=""word"" style=""font-size: 40px;"">share</p>
          <p style=""font-size: 16px;"">J = YES &nbsp;&nbsp;&nbsp; F = NO</p>
        ","j","html-keyboard-response","181","2.1.0","309447","J=YES, F=NO","wm053ysadb","0","46","83","10","","","","","","","","","share","neck","unrelated","experimental","j","true","",""
"null","<p style=""font-size: 50px;"">+</p>","null","html-keyboard-response","182","2.1.0","309754","J=YES, F=NO","wm053ysadb","0","46","83","10","","","","","","","","","","","","","","","",""
"null","audio/beep-329314.mp3","null","audio-keyboard-response","183","2.1.0","311288","J=YES, F=NO","wm053ysadb","0","46","83","10","","","","","","","","","","","","","","","",""
"null","audio/pine.wav","null","audio-keyboard-response","184","2.1.0","311778","J=YES, F=NO","wm053ysadb","0","46","83","10","","","","","","","","","","","","","","","",""
"885","
          <p id=""word"" style=""font-size: 40px;"">crebble</p>
          <p style=""font-size: 16px;"">J = YES &nbsp;&nbsp;&nbsp; F = NO</p>
        ","f","html-keyboard-response","185","2.1.0","312663","J=YES, F=NO","wm053ysadb","0","46","83","10","","","","","","","","","crebble","pine","pseudoword","pseudoword","f","true","",""
"null","<p style=""font-size: 50px;"">+</p>","null","html-keyboard-response","186","2.1.0","312976","J=YES, F=NO","wm053ysadb","0","46","83","10","","","","","","","","","","","","","","","",""
"null","audio/beep-329314.mp3","null","audio-keyboard-response","187","2.1.0","314510","J=YES, F=NO","wm053ysadb","0","46","83","10","","","","","","","","","","","","","","","",""
"null","audio/golf1.wav","null","audio-keyboard-response","188","2.1.0","315128","J=YES, F=NO","wm053ysadb","0","46","83","10","","","","","","","","","","","","","","","",""
"1182","
          <p id=""word"" style=""font-size: 40px;"">drabble</p>
          <p style=""font-size: 16px;"">J = YES &nbsp;&nbsp;&nbsp; F = NO</p>
        ","f","html-keyboard-response","189","2.1.0","316311","J=YES, F=NO","wm053ysadb","0","46","83","10","","","","","","","","","drabble","golf1","pseudoword","pseudoword","f","true","",""
"null","<p style=""font-size: 50px;"">+</p>","null","html-keyboard-response","190","2.1.0","316621","J=YES, F=NO","wm053ysadb","0","46","83","10","","","","","","","","","","","","","","","",""
"null","audio/beep-329314.mp3","null","audio-keyboard-response","191","2.1.0","318157","J=YES, F=NO","wm053ysadb","0","46","83","10","","","","","","","","","","","","","","","",""
"null","audio/sand.wav","null","audio-keyboard-response","192","2.1.0","318797","J=YES, F=NO","wm053ysadb","0","46","83","10","","","","","","","","","","","","","","","",""
"665","
          <p id=""word"" style=""font-size: 40px;"">possess</p>
          <p style=""font-size: 16px;"">J = YES &nbsp;&nbsp;&nbsp; F = NO</p>
        ","j","html-keyboard-response","193","2.1.0","319463","J=YES, F=NO","wm053ysadb","0","46","83","10","","","","","","","","","possess","sand","unrelated","experimental","j","true","",""
"null","<p style=""font-size: 50px;"">+</p>","null","html-keyboard-response","194","2.1.0","319770","J=YES, F=NO","wm053ysadb","0","46","83","10","","","","","","","","","","","","","","","",""
"null","audio/beep-329314.mp3","null","audio-keyboard-response","195","2.1.0","321294","J=YES, F=NO","wm053ysadb","0","46","83","10","","","","","","","","","","","","","","","",""
"null","audio/gift1.wav","null","audio-keyboard-response","196","2.1.0","321763","J=YES, F=NO","wm053ysadb","0","46","83","10","","","","","","","","","","","","","","","",""
"756","
          <p id=""word"" style=""font-size: 40px;"">protsh</p>
          <p style=""font-size: 16px;"">J = YES &nbsp;&nbsp;&nbsp; F = NO</p>
        ","f","html-keyboard-response","197","2.1.0","322520","J=YES, F=NO","wm053ysadb","0","46","83","10","","","","","","","","","protsh","gift1","pseudoword","pseudoword","f","true","",""
"null","<p style=""font-size: 50px;"">+</p>","null","html-keyboard-response","198","2.1.0","322824","J=YES, F=NO","wm053ysadb","0","46","83","10","","","","","","","","","","","","","","","",""
"null","audio/beep-329314.mp3","null","audio-keyboard-response","199","2.1.0","324344","J=YES, F=NO","wm053ysadb","0","46","83","10","","","","","","","","","","","","","","","",""
"null","audio/corpse1.wav","null","audio-keyboard-response","200","2.1.0","324984","J=YES, F=NO","wm053ysadb","0","46","83","10","","","","","","","","","","","","","","","",""
"767","
          <p id=""word"" style=""font-size: 40px;"">glonet</p>
          <p style=""font-size: 16px;"">J = YES &nbsp;&nbsp;&nbsp; F = NO</p>
        ","f","html-keyboard-response","201","2.1.0","325751","J=YES, F=NO","wm053ysadb","0","46","83","10","","","","","","","","","glonet","corpse1","pseudoword","pseudoword","f","true","",""
"null","<p style=""font-size: 50px;"">+</p>","null","html-keyboard-response","202","2.1.0","326061","J=YES, F=NO","wm053ysadb","0","46","83","10","","","","","","","","","","","","","","","",""
"null","audio/beep-329314.mp3","null","audio-keyboard-response","203","2.1.0","327586","J=YES, F=NO","wm053ysadb","0","46","83","10","","","","","","","","","","","","","","","",""
"null","audio/burden.wav","null","audio-keyboard-response","204","2.1.0","328290","J=YES, F=NO","wm053ysadb","0","46","83","10","","","","","","","","","","","","","","","",""
"644","
          <p id=""word"" style=""font-size: 40px;"">carry</p>
          <p style=""font-size: 16px;"">J = YES &nbsp;&nbsp;&nbsp; F = NO</p>
        ","j","html-keyboard-response","205","2.1.0","328935","J=YES, F=NO","wm053ysadb","0","46","83","10","","","","","","","","","carry","burden","metaphor","experimental","j","true","",""
"null","<p style=""font-size: 50px;"">+</p>","null","html-keyboard-response","206","2.1.0","329251","J=YES, F=NO","wm053ysadb","0","46","83","10","","","","","","","","","","","","","","","",""
"null","audio/beep-329314.mp3","null","audio-keyboard-response","207","2.1.0","330787","J=YES, F=NO","wm053ysadb","0","46","83","10","","","","","","","","","","","","","","","",""
"null","audio/hotel1.wav","null","audio-keyboard-response","208","2.1.0","331469","J=YES, F=NO","wm053ysadb","0","46","83","10","","","","","","","","","","","","","","","",""
"698","
          <p id=""word"" style=""font-size: 40px;"">flanter</p>
          <p style=""font-size: 16px;"">J = YES &nbsp;&nbsp;&nbsp; F = NO</p>
        ","f","html-keyboard-response","209","2.1.0","332168","J=YES, F=NO","wm053ysadb","0","46","83","10","","","","","","","","","flanter","hotel1","pseudoword","pseudoword","f","true","",""
"null","<p style=""font-size: 50px;"">+</p>","null","html-keyboard-response","210","2.1.0","332472","J=YES, F=NO","wm053ysadb","0","46","83","10","","","","","","","","","","","","","","","",""
"null","audio/beep-329314.mp3","null","audio-keyboard-response","211","2.1.0","334009","J=YES, F=NO","wm053ysadb","0","46","83","10","","","","","","","","","","","","","","","",""
"null","audio/table1.wav","null","audio-keyboard-response","212","2.1.0","334713","J=YES, F=NO","wm053ysadb","0","46","83","10","","","","","","","","","","","","","","","",""
"1102","
          <p id=""word"" style=""font-size: 40px;"">stimb</p>
          <p style=""font-size: 16px;"">J = YES &nbsp;&nbsp;&nbsp; F = NO</p>
        ","j","html-keyboard-response","213","2.1.0","335815","J=YES, F=NO","wm053ysadb","0","46","83","10","","","","","","","","","stimb","table1","pseudoword","pseudoword","f","false","",""
"null","<p style=""font-size: 50px;"">+</p>","null","html-keyboard-response","214","2.1.0","336129","J=YES, F=NO","wm053ysadb","0","46","83","10","","","","","","","","","","","","","","","",""
"null","audio/beep-329314.mp3","null","audio-keyboard-response","215","2.1.0","337656","J=YES, F=NO","wm053ysadb","0","46","83","10","","","","","","","","","","","","","","","",""
"null","audio/arm.wav","null","audio-keyboard-response","216","2.1.0","338189","J=YES, F=NO","wm053ysadb","0","46","83","10","","","","","","","","","","","","","","","",""
"601","
          <p id=""word"" style=""font-size: 40px;"">seize</p>
          <p style=""font-size: 16px;"">J = YES &nbsp;&nbsp;&nbsp; F = NO</p>
        ","j","html-keyboard-response","217","2.1.0","338791","J=YES, F=NO","wm053ysadb","0","46","83","10","","","","","","","","","seize","arm","literal","experimental","j","true","",""
"null","<p style=""font-size: 50px;"">+</p>","null","html-keyboard-response","218","2.1.0","339103","J=YES, F=NO","wm053ysadb","0","46","83","10","","","","","","","","","","","","","","","",""
"null","audio/beep-329314.mp3","null","audio-keyboard-response","219","2.1.0","340622","J=YES, F=NO","wm053ysadb","0","46","83","10","","","","","","","","","","","","","","","",""
"null","audio/vehicle1.wav","null","audio-keyboard-response","220","2.1.0","341453","J=YES, F=NO","wm053ysadb","0","46","83","10","","","","","","","","","","","","","","","",""
"921","
          <p id=""word"" style=""font-size: 40px;"">dropt</p>
          <p style=""font-size: 16px;"">J = YES &nbsp;&nbsp;&nbsp; F = NO</p>
        ","f","html-keyboard-response","221","2.1.0","342376","J=YES, F=NO","wm053ysadb","0","46","83","10","","","","","","","","","dropt","vehicle1","pseudoword","pseudoword","f","true","",""
"null","<p style=""font-size: 50px;"">+</p>","null","html-keyboard-response","222","2.1.0","342689","J=YES, F=NO","wm053ysadb","0","46","83","10","","","","","","","","","","","","","","","",""
"null","audio/beep-329314.mp3","null","audio-keyboard-response","223","2.1.0","344206","J=YES, F=NO","wm053ysadb","0","46","83","10","","","","","","","","","","","","","","","",""
"null","audio/ankle1.wav","null","audio-keyboard-response","224","2.1.0","344717","J=YES, F=NO","wm053ysadb","0","46","83","10","","","","","","","","","","","","","","","",""
"842","
          <p id=""word"" style=""font-size: 40px;"">switm</p>
          <p style=""font-size: 16px;"">J = YES &nbsp;&nbsp;&nbsp; F = NO</p>
        ","f","html-keyboard-response","225","2.1.0","345559","J=YES, F=NO","wm053ysadb","0","46","83","10","","","","","","","","","switm","ankle1","pseudoword","pseudoword","f","true","",""
"null","<p style=""font-size: 50px;"">+</p>","null","html-keyboard-response","226","2.1.0","345866","J=YES, F=NO","wm053ysadb","0","46","83","10","","","","","","","","","","","","","","","",""
"null","audio/beep-329314.mp3","null","audio-keyboard-response","227","2.1.0","347384","J=YES, F=NO","wm053ysadb","0","46","83","10","","","","","","","","","","","","","","","",""
"null","audio/strength.wav","null","audio-keyboard-response","228","2.1.0","348302","J=YES, F=NO","wm053ysadb","0","46","83","10","","","","","","","","","","","","","","","",""
"729","
          <p id=""word"" style=""font-size: 40px;"">plabet</p>
          <p style=""font-size: 16px;"">J = YES &nbsp;&nbsp;&nbsp; F = NO</p>
        ","f","html-keyboard-response","229","2.1.0","349032","J=YES, F=NO","wm053ysadb","0","46","83","10","","","","","","","","","plabet","strength","pseudoword","pseudoword","f","true","",""
"3920","<p>Excellent! You have finished block 1 of 8.</p>
                     <p>Feel free to take a 30 second break.</p>
                     <p>Press any key when you're ready to continue.</p>","Enter","html-keyboard-response","230","2.1.0","352952","J=YES, F=NO","wm053ysadb","0","46","83","10","","","","","","","","","","","","","","","",""
"799","<p>Starting main block 2 of 8. Press any key to continue.</p>","Enter","html-keyboard-response","231","2.1.0","353752","J=YES, F=NO","wm053ysadb","0","46","83","10","","","","","","","","","","","","","","","",""
"null","<p style=""font-size: 50px;"">+</p>","null","html-keyboard-response","232","2.1.0","354068","J=YES, F=NO","wm053ysadb","0","46","83","10","","","","","","","","","","","","","","","",""
"null","audio/beep-329314.mp3","null","audio-keyboard-response","233","2.1.0","355597","J=YES, F=NO","wm053ysadb","0","46","83","10","","","","","","","","","","","","","","","",""
"null","audio/life1.wav","null","audio-keyboard-response","234","2.1.0","356344","J=YES, F=NO","wm053ysadb","0","46","83","10","","","","","","","","","","","","","","","",""
"783","
          <p id=""word"" style=""font-size: 40px;"">flimch</p>
          <p style=""font-size: 16px;"">J = YES &nbsp;&nbsp;&nbsp; F = NO</p>
        ","f","html-keyboard-response","235","2.1.0","357127","J=YES, F=NO","wm053ysadb","0","46","83","10","","","","","","","","","flimch","life1","pseudoword","pseudoword","f","true","",""
"null","<p style=""font-size: 50px;"">+</p>","null","html-keyboard-response","236","2.1.0","357430","J=YES, F=NO","wm053ysadb","0","46","83","10","","","","","","","","","","","","","","","",""
"null","audio/beep-329314.mp3","null","audio-keyboard-response","237","2.1.0","358947","J=YES, F=NO","wm053ysadb","0","46","83","10","","","","","","","","","","","","","","","",""
"null","audio/novel.wav","null","audio-keyboard-response","238","2.1.0","359437","J=YES, F=NO","wm053ysadb","0","46","83","10","","","","","","","","","","","","","","","",""
"697","
          <p id=""word"" style=""font-size: 40px;"">devour</p>
          <p style=""font-size: 16px;"">J = YES &nbsp;&nbsp;&nbsp; F = NO</p>
        ","j","html-keyboard-response","239","2.1.0","360135","J=YES, F=NO","wm053ysadb","0","46","83","10","","","","","","","","","devour","novel","metaphor","experimental","j","true","",""
"null","<p style=""font-size: 50px;"">+</p>","null","html-keyboard-response","240","2.1.0","360437","J=YES, F=NO","wm053ysadb","0","46","83","10","","","","","","","","","","","","","","","",""
"null","audio/beep-329314.mp3","null","audio-keyboard-response","241","2.1.0","361956","J=YES, F=NO","wm053ysadb","0","46","83","10","","","","","","","","","","","","","","","",""
"null","audio/radio1.wav","null","audio-keyboard-response","242","2.1.0","362744","J=YES, F=NO","wm053ysadb","0","46","83","10","","","","","","","","","","","","","","","",""
"927","
          <p id=""word"" style=""font-size: 40px;"">blanter</p>
          <p style=""font-size: 16px;"">J = YES &nbsp;&nbsp;&nbsp; F = NO</p>
        ","j","html-keyboard-response","243","2.1.0","363672","J=YES, F=NO","wm053ysadb","0","46","83","10","","","","","","","","","blanter","radio1","pseudoword","pseudoword","f","false","",""
"null","<p style=""font-size: 50px;"">+</p>","null","html-keyboard-response","244","2.1.0","363973","J=YES, F=NO","wm053ysadb","0","46","83","10","","","","","","","","","","","","","","","",""
"null","audio/beep-329314.mp3","null","audio-keyboard-response","245","2.1.0","365496","J=YES, F=NO","wm053ysadb","0","46","83","10","","","","","","","","","","","","","","","",""
"null","audio/uncle1.wav","null","audio-keyboard-response","246","2.1.0","365965","J=YES, F=NO","wm053ysadb","0","46","83","10","","","","","","","","","","","","","","","",""
"649","
          <p id=""word"" style=""font-size: 40px;"">break</p>
          <p style=""font-size: 16px;"">J = YES &nbsp;&nbsp;&nbsp; F = NO</p>
        ","j","html-keyboard-response","247","2.1.0","366615","J=YES, F=NO","wm053ysadb","0","46","83","10","","","","","","","","","break","uncle1","unrelated","experimental","j","true","",""
"null","<p style=""font-size: 50px;"">+</p>","null","html-keyboard-response","248","2.1.0","366929","J=YES, F=NO","wm053ysadb","0","46","83","10","","","","","","","","","","","","","","","",""
"null","audio/beep-329314.mp3","null","audio-keyboard-response","249","2.1.0","368461","J=YES, F=NO","wm053ysadb","0","46","83","10","","","","","","","","","","","","","","","",""
"null","audio/truth1.wav","null","audio-keyboard-response","250","2.1.0","369208","J=YES, F=NO","wm053ysadb","0","46","83","10","","","","","","","","","","","","","","","",""
"800","
          <p id=""word"" style=""font-size: 40px;"">calitom</p>
          <p style=""font-size: 16px;"">J = YES &nbsp;&nbsp;&nbsp; F = NO</p>
        ","f","html-keyboard-response","251","2.1.0","370009","J=YES, F=NO","wm053ysadb","0","46","83","10","","","","","","","","","calitom","truth1","pseudoword","pseudoword","f","true","",""
"null","<p style=""font-size: 50px;"">+</p>","null","html-keyboard-response","252","2.1.0","370320","J=YES, F=NO","wm053ysadb","0","46","83","10","","","","","","","","","","","","","","","",""
"null","audio/beep-329314.mp3","null","audio-keyboard-response","253","2.1.0","371854","J=YES, F=NO","wm053ysadb","0","46","83","10","","","","","","","","","","","","","","","",""
"null","audio/desire.wav","null","audio-keyboard-response","254","2.1.0","372536","J=YES, F=NO","wm053ysadb","0","46","83","10","","","","","","","","","","","","","","","",""
"782","
          <p id=""word"" style=""font-size: 40px;"">nophed</p>
          <p style=""font-size: 16px;"">J = YES &nbsp;&nbsp;&nbsp; F = NO</p>
        ","f","html-keyboard-response","255","2.1.0","373319","J=YES, F=NO","wm053ysadb","0","46","83","10","","","","","","","","","nophed","desire","pseudoword","pseudoword","f","true","",""
"null","<p style=""font-size: 50px;"">+</p>","null","html-keyboard-response","256","2.1.0","373624","J=YES, F=NO","wm053ysadb","0","46","83","10","","","","","","","","","","","","","","","",""
"null","audio/beep-329314.mp3","null","audio-keyboard-response","257","2.1.0","375160","J=YES, F=NO","wm053ysadb","0","46","83","10","","","","","","","","","","","","","","","",""
"null","audio/handle.wav","null","audio-keyboard-response","258","2.1.0","375842","J=YES, F=NO","wm053ysadb","0","46","83","10","","","","","","","","","","","","","","","",""
"773","
          <p id=""word"" style=""font-size: 40px;"">grasp</p>
          <p style=""font-size: 16px;"">J = YES &nbsp;&nbsp;&nbsp; F = NO</p>
        ","j","html-keyboard-response","259","2.1.0","376616","J=YES, F=NO","wm053ysadb","0","46","83","10","","","","","","","","","grasp","handle","literal","experimental","j","true","",""
"null","<p style=""font-size: 50px;"">+</p>","null","html-keyboard-response","260","2.1.0","376929","J=YES, F=NO","wm053ysadb","0","46","83","10","","","","","","","","","","","","","","","",""
"null","audio/beep-329314.mp3","null","audio-keyboard-response","261","2.1.0","378467","J=YES, F=NO","wm053ysadb","0","46","83","10","","","","","","","","","","","","","","","",""
"null","audio/alarm1.wav","null","audio-keyboard-response","262","2.1.0","379043","J=YES, F=NO","wm053ysadb","0","46","83","10","","","","","","","","","","","","","","","",""
"900","
          <p id=""word"" style=""font-size: 40px;"">swetp</p>
          <p style=""font-size: 16px;"">J = YES &nbsp;&nbsp;&nbsp; F = NO</p>
        ","f","html-keyboard-response","263","2.1.0","379943","J=YES, F=NO","wm053ysadb","0","46","83","10","","","","","","","","","swetp","alarm1","pseudoword","pseudoword","f","true","",""
"null","<p style=""font-size: 50px;"">+</p>","null","html-keyboard-response","264","2.1.0","380256","J=YES, F=NO","wm053ysadb","0","46","83","10","","","","","","","","","","","","","","","",""
"null","audio/beep-329314.mp3","null","audio-keyboard-response","265","2.1.0","381774","J=YES, F=NO","wm053ysadb","0","46","83","10","","","","","","","","","","","","","","","",""
"null","audio/birth1.wav","null","audio-keyboard-response","266","2.1.0","382498","J=YES, F=NO","wm053ysadb","0","46","83","10","","","","","","","","","","","","","","","",""
"724","
          <p id=""word"" style=""font-size: 40px;"">peel</p>
          <p style=""font-size: 16px;"">J = YES &nbsp;&nbsp;&nbsp; F = NO</p>
        ","j","html-keyboard-response","267","2.1.0","383223","J=YES, F=NO","wm053ysadb","0","46","83","10","","","","","","","","","peel","birth1","filler","filler","j","true","",""
"null","<p style=""font-size: 50px;"">+</p>","null","html-keyboard-response","268","2.1.0","383536","J=YES, F=NO","wm053ysadb","0","46","83","10","","","","","","","","","","","","","","","",""
"null","audio/beep-329314.mp3","null","audio-keyboard-response","269","2.1.0","385059","J=YES, F=NO","wm053ysadb","0","46","83","10","","","","","","","","","","","","","","","",""
"null","audio/foot1.wav","null","audio-keyboard-response","270","2.1.0","385806","J=YES, F=NO","wm053ysadb","0","46","83","10","","","","","","","","","","","","","","","",""
"681","
          <p id=""word"" style=""font-size: 40px;"">thrutt</p>
          <p style=""font-size: 16px;"">J = YES &nbsp;&nbsp;&nbsp; F = NO</p>
        ","f","html-keyboard-response","271","2.1.0","386487","J=YES, F=NO","wm053ysadb","0","46","83","10","","","","","","","","","thrutt","foot1","pseudoword","pseudoword","f","true","",""
"null","<p style=""font-size: 50px;"">+</p>","null","html-keyboard-response","272","2.1.0","386796","J=YES, F=NO","wm053ysadb","0","46","83","10","","","","","","","","","","","","","","","",""
"null","audio/beep-329314.mp3","null","audio-keyboard-response","273","2.1.0","388323","J=YES, F=NO","wm053ysadb","0","46","83","10","","","","","","","","","","","","","","","",""
"null","audio/bridge.wav","null","audio-keyboard-response","274","2.1.0","388856","J=YES, F=NO","wm053ysadb","0","46","83","10","","","","","","","","","","","","","","","",""
"559","
          <p id=""word"" style=""font-size: 40px;"">build</p>
          <p style=""font-size: 16px;"">J = YES &nbsp;&nbsp;&nbsp; F = NO</p>
        ","j","html-keyboard-response","275","2.1.0","389415","J=YES, F=NO","wm053ysadb","0","46","83","10","","","","","","","","","build","bridge","literal","experimental","j","true","",""
"null","<p style=""font-size: 50px;"">+</p>","null","html-keyboard-response","276","2.1.0","389725","J=YES, F=NO","wm053ysadb","0","46","83","10","","","","","","","","","","","","","","","",""
"null","audio/beep-329314.mp3","null","audio-keyboard-response","277","2.1.0","391245","J=YES, F=NO","wm053ysadb","0","46","83","10","","","","","","","","","","","","","","","",""
"null","audio/alarm1.wav","null","audio-keyboard-response","278","2.1.0","391822","J=YES, F=NO","wm053ysadb","0","46","83","10","","","","","","","","","","","","","","","",""
"761","
          <p id=""word"" style=""font-size: 40px;"">lock</p>
          <p style=""font-size: 16px;"">J = YES &nbsp;&nbsp;&nbsp; F = NO</p>
        ","j","html-keyboard-response","279","2.1.0","392583","J=YES, F=NO","wm053ysadb","0","46","83","10","","","","","","","","","lock","alarm1","filler","filler","j","true","",""
"null","<p style=""font-size: 50px;"">+</p>","null","html-keyboard-response","280","2.1.0","392887","J=YES, F=NO","wm053ysadb","0","46","83","10","","","","","","","","","","","","","","","",""
"null","audio/beep-329314.mp3","null","audio-keyboard-response","281","2.1.0","394424","J=YES, F=NO","wm053ysadb","0","46","83","10","","","","","","","","","","","","","","","",""
"null","audio/sugar1.wav","null","audio-keyboard-response","282","2.1.0","394894","J=YES, F=NO","wm053ysadb","0","46","83","10","","","","","","","","","","","","","","","",""
"952","
          <p id=""word"" style=""font-size: 40px;"">glung</p>
          <p style=""font-size: 16px;"">J = YES &nbsp;&nbsp;&nbsp; F = NO</p>
        ","j","html-keyboard-response","283","2.1.0","395846","J=YES, F=NO","wm053ysadb","0","46","83","10","","","","","","","","","glung","sugar1","pseudoword","pseudoword","f","false","",""
"null","<p style=""font-size: 50px;"">+</p>","null","html-keyboard-response","284","2.1.0","396160","J=YES, F=NO","wm053ysadb","0","46","83","10","","","","","","","","","","","","","","","",""
"null","audio/beep-329314.mp3","null","audio-keyboard-response","285","2.1.0","397688","J=YES, F=NO","wm053ysadb","0","46","83","10","","","","","","","","","","","","","","","",""
"null","audio/holiday1.wav","null","audio-keyboard-response","286","2.1.0","398499","J=YES, F=NO","wm053ysadb","0","46","83","10","","","","","","","","","","","","","","","",""
"899","
          <p id=""word"" style=""font-size: 40px;"">drivets</p>
          <p style=""font-size: 16px;"">J = YES &nbsp;&nbsp;&nbsp; F = NO</p>
        ","f","html-keyboard-response","287","2.1.0","399399","J=YES, F=NO","wm053ysadb","0","46","83","10","","","","","","","","","drivets","holiday1","pseudoword","pseudoword","f","true","",""
"null","<p style=""font-size: 50px;"">+</p>","null","html-keyboard-response","288","2.1.0","399708","J=YES, F=NO","wm053ysadb","0","46","83","10","","","","","","","","","","","","","","","",""
"null","audio/beep-329314.mp3","null","audio-keyboard-response","289","2.1.0","401230","J=YES, F=NO","wm053ysadb","0","46","83","10","","","","","","","","","","","","","","","",""
"null","audio/table1.wav","null","audio-keyboard-response","290","2.1.0","401720","J=YES, F=NO","wm053ysadb","0","46","83","10","","","","","","","","","","","","","","","",""
"623","
          <p id=""word"" style=""font-size: 40px;"">clear</p>
          <p style=""font-size: 16px;"">J = YES &nbsp;&nbsp;&nbsp; F = NO</p>
        ","j","html-keyboard-response","291","2.1.0","402343","J=YES, F=NO","wm053ysadb","0","46","83","10","","","","","","","","","clear","table1","literal","experimental","j","true","",""
"null","<p style=""font-size: 50px;"">+</p>","null","html-keyboard-response","292","2.1.0","402652","J=YES, F=NO","wm053ysadb","0","46","83","10","","","","","","","","","","","","","","","",""
"null","audio/beep-329314.mp3","null","audio-keyboard-response","293","2.1.0","404173","J=YES, F=NO","wm053ysadb","0","46","83","10","","","","","","","","","","","","","","","",""
"null","audio/fortune1.wav","null","audio-keyboard-response","294","2.1.0","405133","J=YES, F=NO","wm053ysadb","0","46","83","10","","","","","","","","","","","","","","","",""
"554","
          <p id=""word"" style=""font-size: 40px;"">spend</p>
          <p style=""font-size: 16px;"">J = YES &nbsp;&nbsp;&nbsp; F = NO</p>
        ","j","html-keyboard-response","295","2.1.0","405687","J=YES, F=NO","wm053ysadb","0","46","83","10","","","","","","","","","spend","fortune1","literal","experimental","j","true","",""
"2063","<p>Excellent! You have finished block 2 of 8.</p>
                     <p>Feel free to take a 30 second break.</p>
                     <p>Press any key when you're ready to continue.</p>","Enter","html-keyboard-response","296","2.1.0","407751","J=YES, F=NO","wm053ysadb","0","46","83","10","","","","","","","","","","","","","","","",""
"383","<p>Starting main block 3 of 8. Press any key to continue.</p>","Enter","html-keyboard-response","297","2.1.0","408135","J=YES, F=NO","wm053ysadb","0","46","83","10","","","","","","","","","","","","","","","",""
"null","<p style=""font-size: 50px;"">+</p>","null","html-keyboard-response","298","2.1.0","408452","J=YES, F=NO","wm053ysadb","0","46","83","10","","","","","","","","","","","","","","","",""
"null","audio/beep-329314.mp3","null","audio-keyboard-response","299","2.1.0","409976","J=YES, F=NO","wm053ysadb","0","46","83","10","","","","","","","","","","","","","","","",""
"null","audio/relief.wav","null","audio-keyboard-response","300","2.1.0","410680","J=YES, F=NO","wm053ysadb","0","46","83","10","","","","","","","","","","","","","","","",""
"911","
          <p id=""word"" style=""font-size: 40px;"">grigg</p>
          <p style=""font-size: 16px;"">J = YES &nbsp;&nbsp;&nbsp; F = NO</p>
        ","j","html-keyboard-response","301","2.1.0","411592","J=YES, F=NO","wm053ysadb","0","46","83","10","","","","","","","","","grigg","relief","pseudoword","pseudoword","f","false","",""
"null","<p style=""font-size: 50px;"">+</p>","null","html-keyboard-response","302","2.1.0","411895","J=YES, F=NO","wm053ysadb","0","46","83","10","","","","","","","","","","","","","","","",""
"null","audio/beep-329314.mp3","null","audio-keyboard-response","303","2.1.0","413432","J=YES, F=NO","wm053ysadb","0","46","83","10","","","","","","","","","","","","","","","",""
"null","audio/grass.wav","null","audio-keyboard-response","304","2.1.0","414136","J=YES, F=NO","wm053ysadb","0","46","83","10","","","","","","","","","","","","","","","",""
"799","
          <p id=""word"" style=""font-size: 40px;"">milames</p>
          <p style=""font-size: 16px;"">J = YES &nbsp;&nbsp;&nbsp; F = NO</p>
        ","f","html-keyboard-response","305","2.1.0","414935","J=YES, F=NO","wm053ysadb","0","46","83","10","","","","","","","","","milames","grass","pseudoword","pseudoword","f","true","",""
"null","<p style=""font-size: 50px;"">+</p>","null","html-keyboard-response","306","2.1.0","415242","J=YES, F=NO","wm053ysadb","0","46","83","10","","","","","","","","","","","","","","","",""
"null","audio/beep-329314.mp3","null","audio-keyboard-response","307","2.1.0","416761","J=YES, F=NO","wm053ysadb","0","46","83","10","","","","","","","","","","","","","","","",""
"null","audio/bomb1.wav","null","audio-keyboard-response","308","2.1.0","417144","J=YES, F=NO","wm053ysadb","0","46","83","10","","","","","","","","","","","","","","","",""
"606","
          <p id=""word"" style=""font-size: 40px;"">drop</p>
          <p style=""font-size: 16px;"">J = YES &nbsp;&nbsp;&nbsp; F = NO</p>
        ","j","html-keyboard-response","309","2.1.0","417751","J=YES, F=NO","wm053ysadb","0","46","83","10","","","","","","","","","drop","bomb1","literal","experimental","j","true","",""
"null","<p style=""font-size: 50px;"">+</p>","null","html-keyboard-response","310","2.1.0","418068","J=YES, F=NO","wm053ysadb","0","46","83","10","","","","","","","","","","","","","","","",""
"null","audio/beep-329314.mp3","null","audio-keyboard-response","311","2.1.0","419597","J=YES, F=NO","wm053ysadb","0","46","83","10","","","","","","","","","","","","","","","",""
"null","audio/show.wav","null","audio-keyboard-response","312","2.1.0","420130","J=YES, F=NO","wm053ysadb","0","46","83","10","","","","","","","","","","","","","","","",""
"661","
          <p id=""word"" style=""font-size: 40px;"">hold</p>
          <p style=""font-size: 16px;"">J = YES &nbsp;&nbsp;&nbsp; F = NO</p>
        ","j","html-keyboard-response","313","2.1.0","420791","J=YES, F=NO","wm053ysadb","0","46","83","10","","","","","","","","","hold","show","metaphor","experimental","j","true","",""
"null","<p style=""font-size: 50px;"">+</p>","null","html-keyboard-response","314","2.1.0","421106","J=YES, F=NO","wm053ysadb","0","46","83","10","","","","","","","","","","","","","","","",""
"null","audio/beep-329314.mp3","null","audio-keyboard-response","315","2.1.0","422627","J=YES, F=NO","wm053ysadb","0","46","83","10","","","","","","","","","","","","","","","",""
"null","audio/gossip1.wav","null","audio-keyboard-response","316","2.1.0","423309","J=YES, F=NO","wm053ysadb","0","46","83","10","","","","","","","","","","","","","","","",""
"1081","
          <p id=""word"" style=""font-size: 40px;"">camerish</p>
          <p style=""font-size: 16px;"">J = YES &nbsp;&nbsp;&nbsp; F = NO</p>
        ","j","html-keyboard-response","317","2.1.0","424391","J=YES, F=NO","wm053ysadb","0","46","83","10","","","","","","","","","camerish","gossip1","pseudoword","pseudoword","f","false","",""
"null","<p style=""font-size: 50px;"">+</p>","null","html-keyboard-response","318","2.1.0","424693","J=YES, F=NO","wm053ysadb","0","46","83","10","","","","","","","","","","","","","","","",""
"null","audio/beep-329314.mp3","null","audio-keyboard-response","319","2.1.0","426211","J=YES, F=NO","wm053ysadb","0","46","83","10","","","","","","","","","","","","","","","",""
"null","audio/ankle1.wav","null","audio-keyboard-response","320","2.1.0","426723","J=YES, F=NO","wm053ysadb","0","46","83","10","","","","","","","","","","","","","","","",""
"516","
          <p id=""word"" style=""font-size: 40px;"">kick</p>
          <p style=""font-size: 16px;"">J = YES &nbsp;&nbsp;&nbsp; F = NO</p>
        ","j","html-keyboard-response","321","2.1.0","427240","J=YES, F=NO","wm053ysadb","0","46","83","10","","","","","","","","","kick","ankle1","filler","filler","j","true","",""
"null","<p style=""font-size: 50px;"">+</p>","null","html-keyboard-response","322","2.1.0","427554","J=YES, F=NO","wm053ysadb","0","46","83","10","","","","","","","","","","","","","","","",""
"null","audio/beep-329314.mp3","null","audio-keyboard-response","323","2.1.0","429091","J=YES, F=NO","wm053ysadb","0","46","83","10","","","","","","","","","","","","","","","",""
"null","audio/topic.wav","null","audio-keyboard-response","324","2.1.0","429944","J=YES, F=NO","wm053ysadb","0","46","83","10","","","","","","","","","","","","","","","",""
"830","
          <p id=""word"" style=""font-size: 40px;"">infortuitist</p>
          <p style=""font-size: 16px;"">J = YES &nbsp;&nbsp;&nbsp; F = NO</p>
        ","f","html-keyboard-response","325","2.1.0","430775","J=YES, F=NO","wm053ysadb","0","46","83","10","","","","","","","","","infortuitist","topic","pseudoword","pseudoword","f","true","",""
"null","<p style=""font-size: 50px;"">+</p>","null","html-keyboard-response","326","2.1.0","431085","J=YES, F=NO","wm053ysadb","0","46","83","10","","","","","","","","","","","","","","","",""
"null","audio/beep-329314.mp3","null","audio-keyboard-response","327","2.1.0","432611","J=YES, F=NO","wm053ysadb","0","46","83","10","","","","","","","","","","","","","","","",""
"null","audio/theory1.wav","null","audio-keyboard-response","328","2.1.0","433315","J=YES, F=NO","wm053ysadb","0","46","83","10","","","","","","","","","","","","","","","",""
"771","
          <p id=""word"" style=""font-size: 40px;"">scolve</p>
          <p style=""font-size: 16px;"">J = YES &nbsp;&nbsp;&nbsp; F = NO</p>
        ","j","html-keyboard-response","329","2.1.0","434087","J=YES, F=NO","wm053ysadb","0","46","83","10","","","","","","","","","scolve","theory1","pseudoword","pseudoword","f","false","",""
"null","<p style=""font-size: 50px;"">+</p>","null","html-keyboard-response","330","2.1.0","434388","J=YES, F=NO","wm053ysadb","0","46","83","10","","","","","","","","","","","","","","","",""
"null","audio/beep-329314.mp3","null","audio-keyboard-response","331","2.1.0","435917","J=YES, F=NO","wm053ysadb","0","46","83","10","","","","","","","","","","","","","","","",""
"null","audio/church1.wav","null","audio-keyboard-response","332","2.1.0","436579","J=YES, F=NO","wm053ysadb","0","46","83","10","","","","","","","","","","","","","","","",""
"596","
          <p id=""word"" style=""font-size: 40px;"">cover</p>
          <p style=""font-size: 16px;"">J = YES &nbsp;&nbsp;&nbsp; F = NO</p>
        ","j","html-keyboard-response","333","2.1.0","437175","J=YES, F=NO","wm053ysadb","0","46","83","10","","","","","","","","","cover","church1","unrelated","experimental","j","true","",""
"null","<p style=""font-size: 50px;"">+</p>","null","html-keyboard-response","334","2.1.0","437489","J=YES, F=NO","wm053ysadb","0","46","83","10","","","","","","","","","","","","","","","",""
"null","audio/beep-329314.mp3","null","audio-keyboard-response","335","2.1.0","439010","J=YES, F=NO","wm053ysadb","0","46","83","10","","","","","","","","","","","","","","","",""
"null","audio/voice.wav","null","audio-keyboard-response","336","2.1.0","439800","J=YES, F=NO","wm053ysadb","0","46","83","10","","","","","","","","","","","","","","","",""
"591","
          <p id=""word"" style=""font-size: 40px;"">flood</p>
          <p style=""font-size: 16px;"">J = YES &nbsp;&nbsp;&nbsp; F = NO</p>
        ","j","html-keyboard-response","337","2.1.0","440392","J=YES, F=NO","wm053ysadb","0","46","83","10","","","","","","","","","flood","voice","unrelated","experimental","j","true","",""
"null","<p style=""font-size: 50px;"">+</p>","null","html-keyboard-response","338","2.1.0","440707","J=YES, F=NO","wm053ysadb","0","46","83","10","","","","","","","","","","","","","","","",""
"null","audio/beep-329314.mp3","null","audio-keyboard-response","339","2.1.0","442232","J=YES, F=NO","wm053ysadb","0","46","83","10","","","","","","","","","","","","","","","",""
"null","audio/account1.wav","null","audio-keyboard-response","340","2.1.0","442893","J=YES, F=NO","wm053ysadb","0","46","83","10","","","","","","","","","","","","","","","",""
"522","
          <p id=""word"" style=""font-size: 40px;"">open</p>
          <p style=""font-size: 16px;"">J = YES &nbsp;&nbsp;&nbsp; F = NO</p>
        ","j","html-keyboard-response","341","2.1.0","443415","J=YES, F=NO","wm053ysadb","0","46","83","10","","","","","","","","","open","account1","metaphor","experimental","j","true","",""
"null","<p style=""font-size: 50px;"">+</p>","null","html-keyboard-response","342","2.1.0","443720","J=YES, F=NO","wm053ysadb","0","46","83","10","","","","","","","","","","","","","","","",""
"null","audio/beep-329314.mp3","null","audio-keyboard-response","343","2.1.0","445240","J=YES, F=NO","wm053ysadb","0","46","83","10","","","","","","","","","","","","","","","",""
"null","audio/pain1.wav","null","audio-keyboard-response","344","2.1.0","445688","J=YES, F=NO","wm053ysadb","0","46","83","10","","","","","","","","","","","","","","","",""
"894","
          <p id=""word"" style=""font-size: 40px;"">tritted</p>
          <p style=""font-size: 16px;"">J = YES &nbsp;&nbsp;&nbsp; F = NO</p>
        ","f","html-keyboard-response","345","2.1.0","446583","J=YES, F=NO","wm053ysadb","0","46","83","10","","","","","","","","","tritted","pain1","pseudoword","pseudoword","f","true","",""
"null","<p style=""font-size: 50px;"">+</p>","null","html-keyboard-response","346","2.1.0","446896","J=YES, F=NO","wm053ysadb","0","46","83","10","","","","","","","","","","","","","","","",""
"null","audio/beep-329314.mp3","null","audio-keyboard-response","347","2.1.0","448419","J=YES, F=NO","wm053ysadb","0","46","83","10","","","","","","","","","","","","","","","",""
"null","audio/handle.wav","null","audio-keyboard-response","348","2.1.0","449038","J=YES, F=NO","wm053ysadb","0","46","83","10","","","","","","","","","","","","","","","",""
"809","
          <p id=""word"" style=""font-size: 40px;"">moutes</p>
          <p style=""font-size: 16px;"">J = YES &nbsp;&nbsp;&nbsp; F = NO</p>
        ","f","html-keyboard-response","349","2.1.0","449847","J=YES, F=NO","wm053ysadb","0","46","83","10","","","","","","","","","moutes","handle","pseudoword","pseudoword","f","true","",""
"null","<p style=""font-size: 50px;"">+</p>","null","html-keyboard-response","350","2.1.0","450149","J=YES, F=NO","wm053ysadb","0","46","83","10","","","","","","","","","","","","","","","",""
"null","audio/beep-329314.mp3","null","audio-keyboard-response","351","2.1.0","451683","J=YES, F=NO","wm053ysadb","0","46","83","10","","","","","","","","","","","","","","","",""
"null","audio/pattern.wav","null","audio-keyboard-response","352","2.1.0","452195","J=YES, F=NO","wm053ysadb","0","46","83","10","","","","","","","","","","","","","","","",""
"981","
          <p id=""word"" style=""font-size: 40px;"">defeat</p>
          <p style=""font-size: 16px;"">J = YES &nbsp;&nbsp;&nbsp; F = NO</p>
        ","j","html-keyboard-response","353","2.1.0","453176","J=YES, F=NO","wm053ysadb","0","46","83","10","","","","","","","","","defeat","pattern","unrelated","experimental","j","true","",""
"null","<p style=""font-size: 50px;"">+</p>","null","html-keyboard-response","354","2.1.0","453486","J=YES, F=NO","wm053ysadb","0","46","83","10","","","","","","","","","","","","","","","",""
"null","audio/beep-329314.mp3","null","audio-keyboard-response","355","2.1.0","455011","J=YES, F=NO","wm053ysadb","0","46","83","10","","","","","","","","","","","","","","","",""
"null","audio/tomato.wav","null","audio-keyboard-response","356","2.1.0","455864","J=YES, F=NO","wm053ysadb","0","46","83","10","","","","","","","","","","","","","","","",""
"927","
          <p id=""word"" style=""font-size: 40px;"">gladies</p>
          <p style=""font-size: 16px;"">J = YES &nbsp;&nbsp;&nbsp; F = NO</p>
        ","j","html-keyboard-response","357","2.1.0","456792","J=YES, F=NO","wm053ysadb","0","46","83","10","","","","","","","","","gladies","tomato","pseudoword","pseudoword","f","false","",""
"null","<p style=""font-size: 50px;"">+</p>","null","html-keyboard-response","358","2.1.0","457093","J=YES, F=NO","wm053ysadb","0","46","83","10","","","","","","","","","","","","","","","",""
"null","audio/beep-329314.mp3","null","audio-keyboard-response","359","2.1.0","458617","J=YES, F=NO","wm053ysadb","0","46","83","10","","","","","","","","","","","","","","","",""
"null","audio/mile1.wav","null","audio-keyboard-response","360","2.1.0","459278","J=YES, F=NO","wm053ysadb","0","46","83","10","","","","","","","","","","","","","","","",""
"1257","
          <p id=""word"" style=""font-size: 40px;"">writch</p>
          <p style=""font-size: 16px;"">J = YES &nbsp;&nbsp;&nbsp; F = NO</p>
        ","j","html-keyboard-response","361","2.1.0","460535","J=YES, F=NO","wm053ysadb","0","46","83","10","","","","","","","","","writch","mile1","pseudoword","pseudoword","f","false","",""
"1823","<p>Excellent! You have finished block 3 of 8.</p>
                     <p>Feel free to take a 30 second break.</p>
                     <p>Press any key when you're ready to continue.</p>","Enter","html-keyboard-response","362","2.1.0","462359","J=YES, F=NO","wm053ysadb","0","46","83","10","","","","","","","","","","","","","","","",""
"256","<p>Starting main block 4 of 8. Press any key to continue.</p>","Enter","html-keyboard-response","363","2.1.0","462615","J=YES, F=NO","wm053ysadb","0","46","83","10","","","","","","","","","","","","","","","",""
"null","<p style=""font-size: 50px;"">+</p>","null","html-keyboard-response","364","2.1.0","462927","J=YES, F=NO","wm053ysadb","0","46","83","10","","","","","","","","","","","","","","","",""
"null","audio/beep-329314.mp3","null","audio-keyboard-response","365","2.1.0","464462","J=YES, F=NO","wm053ysadb","0","46","83","10","","","","","","","","","","","","","","","",""
"null","audio/beach1.wav","null","audio-keyboard-response","366","2.1.0","465059","J=YES, F=NO","wm053ysadb","0","46","83","10","","","","","","","","","","","","","","","",""
"644","
          <p id=""word"" style=""font-size: 40px;"">drive</p>
          <p style=""font-size: 16px;"">J = YES &nbsp;&nbsp;&nbsp; F = NO</p>
        ","j","html-keyboard-response","367","2.1.0","465703","J=YES, F=NO","wm053ysadb","0","46","83","10","","","","","","","","","drive","beach1","filler","filler","j","true","",""
"null","<p style=""font-size: 50px;"">+</p>","null","html-keyboard-response","368","2.1.0","466014","J=YES, F=NO","wm053ysadb","0","46","83","10","","","","","","","","","","","","","","","",""
"null","audio/beep-329314.mp3","null","audio-keyboard-response","369","2.1.0","467533","J=YES, F=NO","wm053ysadb","0","46","83","10","","","","","","","","","","","","","","","",""
"null","audio/foot1.wav","null","audio-keyboard-response","370","2.1.0","468088","J=YES, F=NO","wm053ysadb","0","46","83","10","","","","","","","","","","","","","","","",""
"431","
          <p id=""word"" style=""font-size: 40px;"">close</p>
          <p style=""font-size: 16px;"">J = YES &nbsp;&nbsp;&nbsp; F = NO</p>
        ","j","html-keyboard-response","371","2.1.0","468520","J=YES, F=NO","wm053ysadb","0","46","83","10","","","","","","","","","close","foot1","unrelated","experimental","j","true","",""
"null","<p style=""font-size: 50px;"">+</p>","null","html-keyboard-response","372","2.1.0","468830","J=YES, F=NO","wm053ysadb","0","46","83","10","","","","","","","","","","","","","","","",""
"null","audio/beep-329314.mp3","null","audio-keyboard-response","373","2.1.0","470349","J=YES, F=NO","wm053ysadb","0","46","83","10","","","","","","","","","","","","","","","",""
"null","audio/neck.wav","null","audio-keyboard-response","374","2.1.0","470904","J=YES, F=NO","wm053ysadb","0","46","83","10","","","","","","","","","","","","","","","",""
"1231","
          <p id=""word"" style=""font-size: 40px;"">werling</p>
          <p style=""font-size: 16px;"">J = YES &nbsp;&nbsp;&nbsp; F = NO</p>
        ","f","html-keyboard-response","375","2.1.0","472135","J=YES, F=NO","wm053ysadb","0","46","83","10","","","","","","","","","werling","neck","pseudoword","pseudoword","f","true","",""
"null","<p style=""font-size: 50px;"">+</p>","null","html-keyboard-response","376","2.1.0","472439","J=YES, F=NO","wm053ysadb","0","46","83","10","","","","","","","","","","","","","","","",""
"null","audio/beep-329314.mp3","null","audio-keyboard-response","377","2.1.0","473976","J=YES, F=NO","wm053ysadb","0","46","83","10","","","","","","","","","","","","","","","",""
"null","audio/budget1.wav","null","audio-keyboard-response","378","2.1.0","474680","J=YES, F=NO","wm053ysadb","0","46","83","10","","","","","","","","","","","","","","","",""
"782","
          <p id=""word"" style=""font-size: 40px;"">sulist</p>
          <p style=""font-size: 16px;"">J = YES &nbsp;&nbsp;&nbsp; F = NO</p>
        ","f","html-keyboard-response","379","2.1.0","475463","J=YES, F=NO","wm053ysadb","0","46","83","10","","","","","","","","","sulist","budget1","pseudoword","pseudoword","f","true","",""
"null","<p style=""font-size: 50px;"">+</p>","null","html-keyboard-response","380","2.1.0","475773","J=YES, F=NO","wm053ysadb","0","46","83","10","","","","","","","","","","","","","","","",""
"null","audio/beep-329314.mp3","null","audio-keyboard-response","381","2.1.0","477304","J=YES, F=NO","wm053ysadb","0","46","83","10","","","","","","","","","","","","","","","",""
"null","audio/cancer1.wav","null","audio-keyboard-response","382","2.1.0","478051","J=YES, F=NO","wm053ysadb","0","46","83","10","","","","","","","","","","","","","","","",""
"484","
          <p id=""word"" style=""font-size: 40px;"">draw</p>
          <p style=""font-size: 16px;"">J = YES &nbsp;&nbsp;&nbsp; F = NO</p>
        ","j","html-keyboard-response","383","2.1.0","478536","J=YES, F=NO","wm053ysadb","0","46","83","10","","","","","","","","","draw","cancer1","filler","filler","j","true","",""
"null","<p style=""font-size: 50px;"">+</p>","null","html-keyboard-response","384","2.1.0","478850","J=YES, F=NO","wm053ysadb","0","46","83","10","","","","","","","","","","","","","","","",""
"null","audio/beep-329314.mp3","null","audio-keyboard-response","385","2.1.0","480376","J=YES, F=NO","wm053ysadb","0","46","83","10","","","","","","","","","","","","","","","",""
"null","audio/survey1.wav","null","audio-keyboard-response","386","2.1.0","481294","J=YES, F=NO","wm053ysadb","0","46","83","10","","","","","","","","","","","","","","","",""
"905","
          <p id=""word"" style=""font-size: 40px;"">imploth</p>
          <p style=""font-size: 16px;"">J = YES &nbsp;&nbsp;&nbsp; F = NO</p>
        ","f","html-keyboard-response","387","2.1.0","482200","J=YES, F=NO","wm053ysadb","0","46","83","10","","","","","","","","","imploth","survey1","pseudoword","pseudoword","f","true","",""
"null","<p style=""font-size: 50px;"">+</p>","null","html-keyboard-response","388","2.1.0","482502","J=YES, F=NO","wm053ysadb","0","46","83","10","","","","","","","","","","","","","","","",""
"null","audio/beep-329314.mp3","null","audio-keyboard-response","389","2.1.0","484024","J=YES, F=NO","wm053ysadb","0","46","83","10","","","","","","","","","","","","","","","",""
"null","audio/age1.wav","null","audio-keyboard-response","390","2.1.0","484792","J=YES, F=NO","wm053ysadb","0","46","83","10","","","","","","","","","","","","","","","",""
"862","
          <p id=""word"" style=""font-size: 40px;"">lachry</p>
          <p style=""font-size: 16px;"">J = YES &nbsp;&nbsp;&nbsp; F = NO</p>
