"rt","stimulus","response","trial_type","trial_index","plugin_version","time_elapsed","response_mapping","subject_id","list_index","lextale_score","lextale_word_score","lextale_nonword_score","success","timeout","failed_images","failed_audio","failed_video","task","isWord","isDummy","target","prime","prime_type","stimulus_type","correct_response","correct","section","question_order"
"47300","
    <div style=""max-width: 800px; margin: auto; text-align: left;"">
      <h2>STANFORD UNIVERSITY</h2>
      <h3>Research Information Sheet</h3>
      <p><strong>Protocol Director:</strong> Robert Hawkins<br>
      <strong>Protocol Title:</strong> Communication and social cognition in natural audiovisual contexts<br>
      <strong>IRB#:</strong> 77226</p>

      <p><strong>DESCRIPTION:</strong> You are invited to participate in a research study about language and communication. The purpose of the research is to understand how you interact and communicate with other people in naturalistic settings as a fluent English speaker. This research will be conducted through the Prolific platform, including participants from the US, UK, and Canada. If you decide to participate in this research, you will play a communication game in a group with one or more partners.</p>

      <p><strong>TIME INVOLVEMENT:</strong> The task will last the amount of time advertised on Prolific. You are free to withdraw from the study at any time.</p>

      <p><strong>RISKS AND BENEFITS:</strong> You may become frustrated if your partner gets distracted, or experience discomfort if other participants in your group send text that is inappropriate for the task. We ask you to please be respectful of other participants you might be interacting with to mitigate these risks. You may also experience discomfort when being asked to discuss or challenge emotionally salient political beliefs. Study data will be stored securely, in compliance with Stanford University standards, minimizing the risk of confidentiality breach. This study advances our scientific understanding of how people communicate and collaborate in naturalistic settings. This study may lead to further insights about what can go wrong in teamwork, suggest potential interventions to overcome these barriers, and help to develop assistive technologies that collaborate with human partners. We cannot and do not guarantee or promise that you will receive any benefits from this study.</p>

      <p><strong>PAYMENTS:</strong> You will receive payment in the amount advertised on Prolific. If you do not complete this study, you will receive prorated payment based on the time that you have spent. Additionally, you may be eligible for bonus payments as described in the instructions.</p>

      <p><strong>PARTICIPANT’S RIGHTS:</strong> If you have read this form and have decided to participate in this project, please understand your participation is voluntary and you have the right to withdraw your consent or discontinue participation at any time without penalty or loss of benefits to which you are otherwise entitled. The alternative is not to participate. You have the right to refuse to answer particular questions. The results of this research study may be presented at scientific or professional meetings or published in scientific journals. Your individual privacy will be maintained in all published and written data resulting from the study. In accordance with scientific norms, the data from this study may be used or shared with other researchers for future research (after removing personally identifying information) without additional consent from you.</p>

      <p><strong>CONTACT INFORMATION:</strong><br>
      Questions: If you have any questions, concerns or complaints about this research, its procedures, risks and benefits, contact the Protocol Director, Robert Hawkins (<a href=""mailto:rdhawkins@stanford.edu"">rdhawkins@stanford.edu</a>, 217-549-6923).<br>
      Independent Contact: If you are not satisfied with how this study is being conducted, or if you have any concerns, complaints, or general questions about the research or your rights as a participant, please contact the Stanford Institutional Review Board (IRB) to speak to someone independent of the research team at 650-723-2480 or toll free at 1-866-680-2906, or email at <a href=""mailto:irbnon-med@stanford.edu"">irbnon-med@stanford.edu</a>. You can also write to the Stanford IRB, Stanford University, 1705 El Camino Real, Palo Alto, CA 94306.</p>

      <p><strong>Please save or print a copy of this page for your records.</strong></p>
      <p>If you agree to participate in this research, click ""Continue"" below.</p>
    </div>
  ","0","html-button-response","0","2.1.0","47307","F=YES, J=NO","wntxvhojml","2","75","75","75","","","","","","","","","","","","","","","",""
"11245","
    <div style=""max-width: 800px; margin: auto; text-align: left;"">
      <h2>Welcome!</h2>
      <p>Thank you for participating in this study. The experiment consists of three parts:</p>
      <ol>
        <li>An English vocabulary test</li>
        <li>A main task in which you will hear and see words, and decide whether the written word is a real English word</li>
        <li>A brief survey about your background</li>
      </ol>
      <p>Each part will be introduced before it begins.</p>
      <p>Please make sure you are in a quiet environment and can hear audio clearly for the final task.</p>
      <p style=""margin-top: 2em;"">Press any key to begin.</p>
    </div>
  "," ","html-keyboard-response","1","2.1.0","58561","F=YES, J=NO","wntxvhojml","2","75","75","75","","","","","","","","","","","","","","","",""
"","","","preload","2","2.1.0","59403","F=YES, J=NO","wntxvhojml","2","75","75","75","true","false","[]","[]","[]","","","","","","","","","","",""
"5589","
    <div style=""max-width: 800px; margin: auto; text-align: left;"">
      <h2>Part 1: Vocabulary Test</h2>
      <p>You will now complete the first part of the study: a short English vocabulary test.</p>
      <p>This test is called <strong>LexTALE</strong> and helps us get a general sense of your English proficiency.</p>
      <p style=""margin-top: 2em;"">Press any key to continue.</p>
    </div>
  "," ","html-keyboard-response","3","2.1.0","64993","F=YES, J=NO","wntxvhojml","2","75","75","75","","","","","","","","","","","","","","","",""
"8128","
    <div style=""max-width: 800px; margin: auto; text-align: left;"">
      <h2>LexTALE Vocabulary Test</h2>
      <p>In this test, you will see a series of letter strings—one at a time.</p>
      <p>Your task is to decide whether each string is a real English word.</p>
      <p><strong>Key responses:</strong></p>
      <ul>
        <li><strong>F</strong> = YES (real English word)</li>
        <li><strong>J</strong> = NO (not a real English word)</li>
      </ul>
      <p>There is no time limit, but please try to be accurate.</p>
      <p style=""margin-top: 2em;"">Press any key to begin.</p>
    </div>
  "," ","html-keyboard-response","4","2.1.0","73123","F=YES, J=NO","wntxvhojml","2","75","75","75","","","","","","","","","","","","","","","",""
"1593","
  <p style=""font-size: 40px;"">platery</p>
  <p style=""font-size: 16px;"">F = YES &nbsp;&nbsp;&nbsp; J = NO</p>
","f","html-keyboard-response","5","2.1.0","74717","F=YES, J=NO","wntxvhojml","2","75","75","75","","","","","","lextale","false","true","","","","","","","",""
"918","
  <p style=""font-size: 40px;"">denial</p>
  <p style=""font-size: 16px;"">F = YES &nbsp;&nbsp;&nbsp; J = NO</p>
","f","html-keyboard-response","6","2.1.0","75637","F=YES, J=NO","wntxvhojml","2","75","75","75","","","","","","lextale","true","true","","","","","","","",""
"1600","
  <p style=""font-size: 40px;"">marrit</p>
  <p style=""font-size: 16px;"">F = YES &nbsp;&nbsp;&nbsp; J = NO</p>
","j","html-keyboard-response","7","2.1.0","77240","F=YES, J=NO","wntxvhojml","2","75","75","75","","","","","","lextale","false","true","","","","","","","",""
"1038","
  <p style=""font-size: 40px;"">bottle</p>
  <p style=""font-size: 16px;"">F = YES &nbsp;&nbsp;&nbsp; J = NO</p>
","f","html-keyboard-response","8","2.1.0","78279","F=YES, J=NO","wntxvhojml","2","75","75","75","","","","","","lextale","true","false","","","","","","","",""
"1672","
  <p style=""font-size: 40px;"">birst</p>
  <p style=""font-size: 16px;"">F = YES &nbsp;&nbsp;&nbsp; J = NO</p>
","j","html-keyboard-response","9","2.1.0","79953","F=YES, J=NO","wntxvhojml","2","75","75","75","","","","","","lextale","false","false","","","","","","","",""
"806","
  <p style=""font-size: 40px;"">envy</p>
  <p style=""font-size: 16px;"">F = YES &nbsp;&nbsp;&nbsp; J = NO</p>
","f","html-keyboard-response","10","2.1.0","80760","F=YES, J=NO","wntxvhojml","2","75","75","75","","","","","","lextale","true","false","","","","","","","",""
"1360","
  <p style=""font-size: 40px;"">brang</p>
  <p style=""font-size: 16px;"">F = YES &nbsp;&nbsp;&nbsp; J = NO</p>
","j","html-keyboard-response","11","2.1.0","82121","F=YES, J=NO","wntxvhojml","2","75","75","75","","","","","","lextale","false","false","","","","","","","",""
"730","
  <p style=""font-size: 40px;"">huge</p>
  <p style=""font-size: 16px;"">F = YES &nbsp;&nbsp;&nbsp; J = NO</p>
","f","html-keyboard-response","12","2.1.0","82852","F=YES, J=NO","wntxvhojml","2","75","75","75","","","","","","lextale","true","false","","","","","","","",""
"1388","
  <p style=""font-size: 40px;"">plove</p>
  <p style=""font-size: 16px;"">F = YES &nbsp;&nbsp;&nbsp; J = NO</p>
","f","html-keyboard-response","13","2.1.0","84241","F=YES, J=NO","wntxvhojml","2","75","75","75","","","","","","lextale","false","false","","","","","","","",""
"723","
  <p style=""font-size: 40px;"">border</p>
  <p style=""font-size: 16px;"">F = YES &nbsp;&nbsp;&nbsp; J = NO</p>
","f","html-keyboard-response","14","2.1.0","84966","F=YES, J=NO","wntxvhojml","2","75","75","75","","","","","","lextale","true","false","","","","","","","",""
"1057","
  <p style=""font-size: 40px;"">flimsy</p>
  <p style=""font-size: 16px;"">F = YES &nbsp;&nbsp;&nbsp; J = NO</p>
","j","html-keyboard-response","15","2.1.0","86024","F=YES, J=NO","wntxvhojml","2","75","75","75","","","","","","lextale","true","false","","","","","","","",""
"1274","
  <p style=""font-size: 40px;"">drain</p>
  <p style=""font-size: 16px;"">F = YES &nbsp;&nbsp;&nbsp; J = NO</p>
","f","html-keyboard-response","16","2.1.0","87300","F=YES, J=NO","wntxvhojml","2","75","75","75","","","","","","lextale","true","false","","","","","","","",""
"2075","
  <p style=""font-size: 40px;"">twindle</p>
  <p style=""font-size: 16px;"">F = YES &nbsp;&nbsp;&nbsp; J = NO</p>
","f","html-keyboard-response","17","2.1.0","89376","F=YES, J=NO","wntxvhojml","2","75","75","75","","","","","","lextale","false","false","","","","","","","",""
"3878","
  <p style=""font-size: 40px;"">propose</p>
  <p style=""font-size: 16px;"">F = YES &nbsp;&nbsp;&nbsp; J = NO</p>
","f","html-keyboard-response","18","2.1.0","93255","F=YES, J=NO","wntxvhojml","2","75","75","75","","","","","","lextale","true","false","","","","","","","",""
"1471","
  <p style=""font-size: 40px;"">forlay</p>
  <p style=""font-size: 16px;"">F = YES &nbsp;&nbsp;&nbsp; J = NO</p>
","f","html-keyboard-response","19","2.1.0","94728","F=YES, J=NO","wntxvhojml","2","75","75","75","","","","","","lextale","false","false","","","","","","","",""
"904","
  <p style=""font-size: 40px;"">tenant</p>
  <p style=""font-size: 16px;"">F = YES &nbsp;&nbsp;&nbsp; J = NO</p>
","f","html-keyboard-response","20","2.1.0","95633","F=YES, J=NO","wntxvhojml","2","75","75","75","","","","","","lextale","true","false","","","","","","","",""
"714","
  <p style=""font-size: 40px;"">strain</p>
  <p style=""font-size: 16px;"">F = YES &nbsp;&nbsp;&nbsp; J = NO</p>
","f","html-keyboard-response","21","2.1.0","96348","F=YES, J=NO","wntxvhojml","2","75","75","75","","","","","","lextale","true","false","","","","","","","",""
"875","
  <p style=""font-size: 40px;"">holster</p>
  <p style=""font-size: 16px;"">F = YES &nbsp;&nbsp;&nbsp; J = NO</p>
","f","html-keyboard-response","22","2.1.0","97224","F=YES, J=NO","wntxvhojml","2","75","75","75","","","","","","lextale","true","false","","","","","","","",""
"912","
  <p style=""font-size: 40px;"">hinder</p>
  <p style=""font-size: 16px;"">F = YES &nbsp;&nbsp;&nbsp; J = NO</p>
","f","html-keyboard-response","23","2.1.0","98138","F=YES, J=NO","wntxvhojml","2","75","75","75","","","","","","lextale","true","false","","","","","","","",""
"984","
  <p style=""font-size: 40px;"">swindle</p>
  <p style=""font-size: 16px;"">F = YES &nbsp;&nbsp;&nbsp; J = NO</p>
","f","html-keyboard-response","24","2.1.0","99123","F=YES, J=NO","wntxvhojml","2","75","75","75","","","","","","lextale","true","false","","","","","","","",""
"1453","
  <p style=""font-size: 40px;"">nuder</p>
  <p style=""font-size: 16px;"">F = YES &nbsp;&nbsp;&nbsp; J = NO</p>
","j","html-keyboard-response","25","2.1.0","100576","F=YES, J=NO","wntxvhojml","2","75","75","75","","","","","","lextale","false","false","","","","","","","",""
"990","
  <p style=""font-size: 40px;"">pillow</p>
  <p style=""font-size: 16px;"">F = YES &nbsp;&nbsp;&nbsp; J = NO</p>
","f","html-keyboard-response","26","2.1.0","101568","F=YES, J=NO","wntxvhojml","2","75","75","75","","","","","","lextale","true","false","","","","","","","",""
"1112","
  <p style=""font-size: 40px;"">shumble</p>
  <p style=""font-size: 16px;"">F = YES &nbsp;&nbsp;&nbsp; J = NO</p>
","j","html-keyboard-response","27","2.1.0","102681","F=YES, J=NO","wntxvhojml","2","75","75","75","","","","","","lextale","false","false","","","","","","","",""
"730","
  <p style=""font-size: 40px;"">thirst</p>
  <p style=""font-size: 16px;"">F = YES &nbsp;&nbsp;&nbsp; J = NO</p>
","f","html-keyboard-response","28","2.1.0","103413","F=YES, J=NO","wntxvhojml","2","75","75","75","","","","","","lextale","true","false","","","","","","","",""
"2343","
  <p style=""font-size: 40px;"">unsail</p>
  <p style=""font-size: 16px;"">F = YES &nbsp;&nbsp;&nbsp; J = NO</p>
","j","html-keyboard-response","29","2.1.0","105757","F=YES, J=NO","wntxvhojml","2","75","75","75","","","","","","lextale","false","false","","","","","","","",""
"1315","
  <p style=""font-size: 40px;"">rifle</p>
  <p style=""font-size: 16px;"">F = YES &nbsp;&nbsp;&nbsp; J = NO</p>
","f","html-keyboard-response","30","2.1.0","107074","F=YES, J=NO","wntxvhojml","2","75","75","75","","","","","","lextale","true","false","","","","","","","",""
"1334","
  <p style=""font-size: 40px;"">mush</p>
  <p style=""font-size: 16px;"">F = YES &nbsp;&nbsp;&nbsp; J = NO</p>
","f","html-keyboard-response","31","2.1.0","108409","F=YES, J=NO","wntxvhojml","2","75","75","75","","","","","","lextale","false","false","","","","","","","",""
"2259","
  <p style=""font-size: 40px;"">drench</p>
  <p style=""font-size: 16px;"">F = YES &nbsp;&nbsp;&nbsp; J = NO</p>
","j","html-keyboard-response","32","2.1.0","110668","F=YES, J=NO","wntxvhojml","2","75","75","75","","","","","","lextale","true","false","","","","","","","",""
"1868","
  <p style=""font-size: 40px;"">snirt</p>
  <p style=""font-size: 16px;"">F = YES &nbsp;&nbsp;&nbsp; J = NO</p>
","j","html-keyboard-response","33","2.1.0","112537","F=YES, J=NO","wntxvhojml","2","75","75","75","","","","","","lextale","false","false","","","","","","","",""
"655","
  <p style=""font-size: 40px;"">bitter</p>
  <p style=""font-size: 16px;"">F = YES &nbsp;&nbsp;&nbsp; J = NO</p>
","f","html-keyboard-response","34","2.1.0","113193","F=YES, J=NO","wntxvhojml","2","75","75","75","","","","","","lextale","true","false","","","","","","","",""
"1014","
  <p style=""font-size: 40px;"">pliff</p>
  <p style=""font-size: 16px;"">F = YES &nbsp;&nbsp;&nbsp; J = NO</p>
","j","html-keyboard-response","35","2.1.0","114209","F=YES, J=NO","wntxvhojml","2","75","75","75","","","","","","lextale","false","false","","","","","","","",""
"616","
  <p style=""font-size: 40px;"">tablet</p>
  <p style=""font-size: 16px;"">F = YES &nbsp;&nbsp;&nbsp; J = NO</p>
","f","html-keyboard-response","36","2.1.0","114825","F=YES, J=NO","wntxvhojml","2","75","75","75","","","","","","lextale","true","false","","","","","","","",""
"800","
  <p style=""font-size: 40px;"">glimmer</p>
  <p style=""font-size: 16px;"">F = YES &nbsp;&nbsp;&nbsp; J = NO</p>
","f","html-keyboard-response","37","2.1.0","115627","F=YES, J=NO","wntxvhojml","2","75","75","75","","","","","","lextale","true","false","","","","","","","",""
"624","
  <p style=""font-size: 40px;"">slink</p>
  <p style=""font-size: 16px;"">F = YES &nbsp;&nbsp;&nbsp; J = NO</p>
","f","html-keyboard-response","38","2.1.0","116258","F=YES, J=NO","wntxvhojml","2","75","75","75","","","","","","lextale","true","false","","","","","","","",""
"1155","
  <p style=""font-size: 40px;"">clever</p>
  <p style=""font-size: 16px;"">F = YES &nbsp;&nbsp;&nbsp; J = NO</p>
","f","html-keyboard-response","39","2.1.0","117415","F=YES, J=NO","wntxvhojml","2","75","75","75","","","","","","lextale","true","false","","","","","","","",""
"1740","
  <p style=""font-size: 40px;"">grum</p>
  <p style=""font-size: 16px;"">F = YES &nbsp;&nbsp;&nbsp; J = NO</p>
","j","html-keyboard-response","40","2.1.0","119155","F=YES, J=NO","wntxvhojml","2","75","75","75","","","","","","lextale","false","false","","","","","","","",""
"876","
  <p style=""font-size: 40px;"">string</p>
  <p style=""font-size: 16px;"">F = YES &nbsp;&nbsp;&nbsp; J = NO</p>
","f","html-keyboard-response","41","2.1.0","120032","F=YES, J=NO","wntxvhojml","2","75","75","75","","","","","","lextale","true","false","","","","","","","",""
"1047","
  <p style=""font-size: 40px;"">plim</p>
  <p style=""font-size: 16px;"">F = YES &nbsp;&nbsp;&nbsp; J = NO</p>
","j","html-keyboard-response","42","2.1.0","121081","F=YES, J=NO","wntxvhojml","2","75","75","75","","","","","","lextale","false","false","","","","","","","",""
"604","
  <p style=""font-size: 40px;"">cable</p>
  <p style=""font-size: 16px;"">F = YES &nbsp;&nbsp;&nbsp; J = NO</p>
","f","html-keyboard-response","43","2.1.0","121686","F=YES, J=NO","wntxvhojml","2","75","75","75","","","","","","lextale","true","false","","","","","","","",""
"1511","
  <p style=""font-size: 40px;"">shrivel</p>
  <p style=""font-size: 16px;"">F = YES &nbsp;&nbsp;&nbsp; J = NO</p>
","j","html-keyboard-response","44","2.1.0","123198","F=YES, J=NO","wntxvhojml","2","75","75","75","","","","","","lextale","true","false","","","","","","","",""
"939","
  <p style=""font-size: 40px;"">tarnish</p>
  <p style=""font-size: 16px;"">F = YES &nbsp;&nbsp;&nbsp; J = NO</p>
","f","html-keyboard-response","45","2.1.0","124138","F=YES, J=NO","wntxvhojml","2","75","75","75","","","","","","lextale","true","false","","","","","","","",""
"1126","
  <p style=""font-size: 40px;"">blim</p>
  <p style=""font-size: 16px;"">F = YES &nbsp;&nbsp;&nbsp; J = NO</p>
","j","html-keyboard-response","46","2.1.0","125264","F=YES, J=NO","wntxvhojml","2","75","75","75","","","","","","lextale","false","false","","","","","","","",""
"2003","
  <p style=""font-size: 40px;"">stifle</p>
  <p style=""font-size: 16px;"">F = YES &nbsp;&nbsp;&nbsp; J = NO</p>
","j","html-keyboard-response","47","2.1.0","127267","F=YES, J=NO","wntxvhojml","2","75","75","75","","","","","","lextale","true","false","","","","","","","",""
"1603","
  <p style=""font-size: 40px;"">bint</p>
  <p style=""font-size: 16px;"">F = YES &nbsp;&nbsp;&nbsp; J = NO</p>
","j","html-keyboard-response","48","2.1.0","128872","F=YES, J=NO","wntxvhojml","2","75","75","75","","","","","","lextale","false","false","","","","","","","",""
"677","
  <p style=""font-size: 40px;"">purple</p>
  <p style=""font-size: 16px;"">F = YES &nbsp;&nbsp;&nbsp; J = NO</p>
","f","html-keyboard-response","49","2.1.0","129551","F=YES, J=NO","wntxvhojml","2","75","75","75","","","","","","lextale","true","false","","","","","","","",""
"1049","
  <p style=""font-size: 40px;"">wriggle</p>
  <p style=""font-size: 16px;"">F = YES &nbsp;&nbsp;&nbsp; J = NO</p>
","f","html-keyboard-response","50","2.1.0","130601","F=YES, J=NO","wntxvhojml","2","75","75","75","","","","","","lextale","true","false","","","","","","","",""
"1028","
  <p style=""font-size: 40px;"">mangle</p>
  <p style=""font-size: 16px;"">F = YES &nbsp;&nbsp;&nbsp; J = NO</p>
","f","html-keyboard-response","51","2.1.0","131631","F=YES, J=NO","wntxvhojml","2","75","75","75","","","","","","lextale","true","false","","","","","","","",""
"1990","
  <p style=""font-size: 40px;"">shramp</p>
  <p style=""font-size: 16px;"">F = YES &nbsp;&nbsp;&nbsp; J = NO</p>
","j","html-keyboard-response","52","2.1.0","133622","F=YES, J=NO","wntxvhojml","2","75","75","75","","","","","","lextale","false","false","","","","","","","",""
"858","
  <p style=""font-size: 40px;"">flirt</p>
  <p style=""font-size: 16px;"">F = YES &nbsp;&nbsp;&nbsp; J = NO</p>
","f","html-keyboard-response","53","2.1.0","134484","F=YES, J=NO","wntxvhojml","2","75","75","75","","","","","","lextale","true","false","","","","","","","",""
"998","
  <p style=""font-size: 40px;"">frip</p>
  <p style=""font-size: 16px;"">F = YES &nbsp;&nbsp;&nbsp; J = NO</p>
","j","html-keyboard-response","54","2.1.0","135485","F=YES, J=NO","wntxvhojml","2","75","75","75","","","","","","lextale","false","false","","","","","","","",""
"854","
  <p style=""font-size: 40px;"">tangle</p>
  <p style=""font-size: 16px;"">F = YES &nbsp;&nbsp;&nbsp; J = NO</p>
","f","html-keyboard-response","55","2.1.0","136341","F=YES, J=NO","wntxvhojml","2","75","75","75","","","","","","lextale","true","false","","","","","","","",""
"989","
  <p style=""font-size: 40px;"">crumble</p>
  <p style=""font-size: 16px;"">F = YES &nbsp;&nbsp;&nbsp; J = NO</p>
","f","html-keyboard-response","56","2.1.0","137332","F=YES, J=NO","wntxvhojml","2","75","75","75","","","","","","lextale","true","false","","","","","","","",""
"894","
  <p style=""font-size: 40px;"">wrinkle</p>
  <p style=""font-size: 16px;"">F = YES &nbsp;&nbsp;&nbsp; J = NO</p>
","f","html-keyboard-response","57","2.1.0","138228","F=YES, J=NO","wntxvhojml","2","75","75","75","","","","","","lextale","true","false","","","","","","","",""
"1167","
  <p style=""font-size: 40px;"">slumb</p>
  <p style=""font-size: 16px;"">F = YES &nbsp;&nbsp;&nbsp; J = NO</p>
","j","html-keyboard-response","58","2.1.0","139396","F=YES, J=NO","wntxvhojml","2","75","75","75","","","","","","lextale","false","false","","","","","","","",""
"1013","
  <p style=""font-size: 40px;"">jungle</p>
  <p style=""font-size: 16px;"">F = YES &nbsp;&nbsp;&nbsp; J = NO</p>
","f","html-keyboard-response","59","2.1.0","140410","F=YES, J=NO","wntxvhojml","2","75","75","75","","","","","","lextale","true","false","","","","","","","",""
"1203","
  <p style=""font-size: 40px;"">frolick</p>
  <p style=""font-size: 16px;"">F = YES &nbsp;&nbsp;&nbsp; J = NO</p>
","j","html-keyboard-response","60","2.1.0","141614","F=YES, J=NO","wntxvhojml","2","75","75","75","","","","","","lextale","false","false","","","","","","","",""
"2231","
      <h2>LexTALE Test Completed</h2>
      <p>Your LexTALE vocabulary score is: <strong>75%</strong></p>
      <p>Press any key to continue.</p>
    "," ","html-keyboard-response","61","2.1.0","143846","F=YES, J=NO","wntxvhojml","2","75","75","75","","","","","","","","","","","","","","","",""
"3381","
    <div style=""max-width: 800px; margin: auto; text-align: left;"">
      <h2>Break Time</h2>
      <p>You have completed the first part of the study.</p>
      <p>You may take a short <strong>30-second break</strong> before continuing.</p>
      <p>When you’re ready, press any key to continue to the final task.</p>
    </div>
  "," ","html-keyboard-response","62","2.1.0","147229","F=YES, J=NO","wntxvhojml","2","75","75","75","","","","","","","","","","","","","","","",""
"16478","
    <div style=""max-width: 800px; margin: auto; text-align: left;"">
      <h2>Part 2: Lexical Decision Task</h2>
      <p>You will now begin the second part of the study.</p>
      <p>Each trial will follow this sequence:</p>
      <ul>
        <li>A fixation cross (+) appears at the center of the screen.</li>
        <li>You will hear a short beep followed by a spoken word.</li>
        <li>A written word will appear briefly on the screen.</li>
      </ul>
      <p>Your task is to judge whether the <strong>written word</strong> is a real English word.</p>
      <p style=""margin-top: 1em;""><strong>Key responses:</strong></p>
      <ul>
        <li><strong>F</strong> = YES (real English word)</li>
        <li><strong>J</strong> = NO (not a real English word)</li>
      </ul>
      <p>Please respond as quickly and accurately as you can.</p>
      <p style=""margin-top: 2em;"">Press any key to continue.</p>
    </div>
  "," ","html-keyboard-response","63","2.1.0","163709","F=YES, J=NO","wntxvhojml","2","75","75","75","","","","","","","","","","","","","","","",""
"4920","
    <div style=""max-width: 800px; margin: auto; text-align: left;"">
      <h2>Before You Begin</h2>
      <p>Make sure your sound is turned on.</p>
      <p>You will hear audio during each trial, but your decision should be based only on the <strong>written word</strong> you see on the screen.</p>
      <p><strong>Reminder:</strong></p>
      <ul>
        <li><strong>F</strong> = YES (real English word)</li>
        <li><strong>J</strong> = NO (not a real English word)</li>
      </ul>
      <p style=""margin-top: 2em;"">Press any key when you are ready to begin.</p>
    </div>
  "," ","html-keyboard-response","64","2.1.0","168630","F=YES, J=NO","wntxvhojml","2","75","75","75","","","","","","","","","","","","","","","",""
"2936","
    <div style=""max-width: 800px; margin: auto; text-align: left;"">
      <h2>Part 2: Practice Trials</h2>
      <p>You will now complete a few <strong>practice trials</strong> to get familiar with the task.</p>
      <p>These trials are <strong>not scored</strong> and are only to help you get used to the format.</p>
      <p style=""margin-top: 2em;"">Press any key to begin.</p>
    </div>
  "," ","html-keyboard-response","65","2.1.0","171567","F=YES, J=NO","wntxvhojml","2","75","75","75","","","","","","","","","","","","","","","",""
"1677","<p>Starting practice block 1 of 2. Press any key to continue.</p>"," ","html-keyboard-response","66","2.1.0","173245","F=YES, J=NO","wntxvhojml","2","75","75","75","","","","","","","","","","","","","","","",""
"null","<p style=""font-size: 50px;"">+</p>","null","html-keyboard-response","67","2.1.0","173553","F=YES, J=NO","wntxvhojml","2","75","75","75","","","","","","","","","","","","","","","",""
"null","audio/beep-329314.mp3","null","audio-keyboard-response","68","2.1.0","175099","F=YES, J=NO","wntxvhojml","2","75","75","75","","","","","","","","","","","","","","","",""
"null","audio/window1.wav","null","audio-keyboard-response","69","2.1.0","175789","F=YES, J=NO","wntxvhojml","2","75","75","75","","","","","","","","","","","","","","","",""
"1495","
          <p id=""word"" style=""font-size: 40px;"">toss</p>
          <p style=""font-size: 16px;"">F = YES &nbsp;&nbsp;&nbsp; J = NO</p>
        ","f","html-keyboard-response","70","2.1.0","177292","F=YES, J=NO","wntxvhojml","2","75","75","75","","","","","","","","","toss","window1","filler","filler","f","true","",""
"null","<p style=""font-size: 50px;"">+</p>","null","html-keyboard-response","71","2.1.0","177608","F=YES, J=NO","wntxvhojml","2","75","75","75","","","","","","","","","","","","","","","",""
"null","audio/beep-329314.mp3","null","audio-keyboard-response","72","2.1.0","179146","F=YES, J=NO","wntxvhojml","2","75","75","75","","","","","","","","","","","","","","","",""
"null","audio/truth1.wav","null","audio-keyboard-response","73","2.1.0","179755","F=YES, J=NO","wntxvhojml","2","75","75","75","","","","","","","","","","","","","","","",""
"988","
          <p id=""word"" style=""font-size: 40px;"">calitom</p>
          <p style=""font-size: 16px;"">F = YES &nbsp;&nbsp;&nbsp; J = NO</p>
        ","j","html-keyboard-response","74","2.1.0","180744","F=YES, J=NO","wntxvhojml","2","75","75","75","","","","","","","","","calitom","truth1","pseudoword","pseudoword","j","true","",""
"null","<p style=""font-size: 50px;"">+</p>","null","html-keyboard-response","75","2.1.0","181060","F=YES, J=NO","wntxvhojml","2","75","75","75","","","","","","","","","","","","","","","",""
"null","audio/beep-329314.mp3","null","audio-keyboard-response","76","2.1.0","182585","F=YES, J=NO","wntxvhojml","2","75","75","75","","","","","","","","","","","","","","","",""
"null","audio/golf1.wav","null","audio-keyboard-response","77","2.1.0","183195","F=YES, J=NO","wntxvhojml","2","75","75","75","","","","","","","","","","","","","","","",""
"1122","
          <p id=""word"" style=""font-size: 40px;"">drabble</p>
          <p style=""font-size: 16px;"">F = YES &nbsp;&nbsp;&nbsp; J = NO</p>
        ","j","html-keyboard-response","78","2.1.0","184318","F=YES, J=NO","wntxvhojml","2","75","75","75","","","","","","","","","drabble","golf1","pseudoword","pseudoword","j","true","",""
"null","<p style=""font-size: 50px;"">+</p>","null","html-keyboard-response","79","2.1.0","184620","F=YES, J=NO","wntxvhojml","2","75","75","75","","","","","","","","","","","","","","","",""
"null","audio/beep-329314.mp3","null","audio-keyboard-response","80","2.1.0","186146","F=YES, J=NO","wntxvhojml","2","75","75","75","","","","","","","","","","","","","","","",""
"null","audio/bomb1.wav","null","audio-keyboard-response","81","2.1.0","186534","F=YES, J=NO","wntxvhojml","2","75","75","75","","","","","","","","","","","","","","","",""
"757","
          <p id=""word"" style=""font-size: 40px;"">clean</p>
          <p style=""font-size: 16px;"">F = YES &nbsp;&nbsp;&nbsp; J = NO</p>
        ","f","html-keyboard-response","82","2.1.0","187292","F=YES, J=NO","wntxvhojml","2","75","75","75","","","","","","","","","clean","bomb1","filler","filler","f","true","",""
"null","<p style=""font-size: 50px;"">+</p>","null","html-keyboard-response","83","2.1.0","187609","F=YES, J=NO","wntxvhojml","2","75","75","75","","","","","","","","","","","","","","","",""
"null","audio/beep-329314.mp3","null","audio-keyboard-response","84","2.1.0","189144","F=YES, J=NO","wntxvhojml","2","75","75","75","","","","","","","","","","","","","","","",""
"null","audio/bush1.wav","null","audio-keyboard-response","85","2.1.0","189655","F=YES, J=NO","wntxvhojml","2","75","75","75","","","","","","","","","","","","","","","",""
"980","
          <p id=""word"" style=""font-size: 40px;"">platined</p>
          <p style=""font-size: 16px;"">F = YES &nbsp;&nbsp;&nbsp; J = NO</p>
        ","j","html-keyboard-response","86","2.1.0","190636","F=YES, J=NO","wntxvhojml","2","75","75","75","","","","","","","","","platined","bush1","pseudoword","pseudoword","j","true","",""
"null","<p style=""font-size: 50px;"">+</p>","null","html-keyboard-response","87","2.1.0","190948","F=YES, J=NO","wntxvhojml","2","75","75","75","","","","","","","","","","","","","","","",""
"null","audio/beep-329314.mp3","null","audio-keyboard-response","88","2.1.0","192485","F=YES, J=NO","wntxvhojml","2","75","75","75","","","","","","","","","","","","","","","",""
"null","audio/kettle1.wav","null","audio-keyboard-response","89","2.1.0","192954","F=YES, J=NO","wntxvhojml","2","75","75","75","","","","","","","","","","","","","","","",""
"739","
          <p id=""word"" style=""font-size: 40px;"">wrap</p>
          <p style=""font-size: 16px;"">F = YES &nbsp;&nbsp;&nbsp; J = NO</p>
        ","f","html-keyboard-response","90","2.1.0","193694","F=YES, J=NO","wntxvhojml","2","75","75","75","","","","","","","","","wrap","kettle1","filler","filler","f","true","",""
"null","<p style=""font-size: 50px;"">+</p>","null","html-keyboard-response","91","2.1.0","194010","F=YES, J=NO","wntxvhojml","2","75","75","75","","","","","","","","","","","","","","","",""
"null","audio/beep-329314.mp3","null","audio-keyboard-response","92","2.1.0","195545","F=YES, J=NO","wntxvhojml","2","75","75","75","","","","","","","","","","","","","","","",""
"null","audio/scar.wav","null","audio-keyboard-response","93","2.1.0","196135","F=YES, J=NO","wntxvhojml","2","75","75","75","","","","","","","","","","","","","","","",""
"842","
          <p id=""word"" style=""font-size: 40px;"">adelineate</p>
          <p style=""font-size: 16px;"">F = YES &nbsp;&nbsp;&nbsp; J = NO</p>
        ","j","html-keyboard-response","94","2.1.0","196977","F=YES, J=NO","wntxvhojml","2","75","75","75","","","","","","","","","adelineate","scar","pseudoword","pseudoword","j","true","",""
"null","<p style=""font-size: 50px;"">+</p>","null","html-keyboard-response","95","2.1.0","197283","F=YES, J=NO","wntxvhojml","2","75","75","75","","","","","","","","","","","","","","","",""
"null","audio/beep-329314.mp3","null","audio-keyboard-response","96","2.1.0","198805","F=YES, J=NO","wntxvhojml","2","75","75","75","","","","","","","","","","","","","","","",""
"null","audio/stain.wav","null","audio-keyboard-response","97","2.1.0","199455","F=YES, J=NO","wntxvhojml","2","75","75","75","","","","","","","","","","","","","","","",""
"837","
          <p id=""word"" style=""font-size: 40px;"">rumpsied</p>
          <p style=""font-size: 16px;"">F = YES &nbsp;&nbsp;&nbsp; J = NO</p>
        ","j","html-keyboard-response","98","2.1.0","200294","F=YES, J=NO","wntxvhojml","2","75","75","75","","","","","","","","","rumpsied","stain","pseudoword","pseudoword","j","true","",""
"null","<p style=""font-size: 50px;"">+</p>","null","html-keyboard-response","99","2.1.0","200597","F=YES, J=NO","wntxvhojml","2","75","75","75","","","","","","","","","","","","","","","",""
"null","audio/beep-329314.mp3","null","audio-keyboard-response","100","2.1.0","202125","F=YES, J=NO","wntxvhojml","2","75","75","75","","","","","","","","","","","","","","","",""
"null","audio/van1.wav","null","audio-keyboard-response","101","2.1.0","202615","F=YES, J=NO","wntxvhojml","2","75","75","75","","","","","","","","","","","","","","","",""
"609","
          <p id=""word"" style=""font-size: 40px;"">push</p>
          <p style=""font-size: 16px;"">F = YES &nbsp;&nbsp;&nbsp; J = NO</p>
        ","f","html-keyboard-response","102","2.1.0","203226","F=YES, J=NO","wntxvhojml","2","75","75","75","","","","","","","","","push","van1","filler","filler","f","true","",""
"null","<p style=""font-size: 50px;"">+</p>","null","html-keyboard-response","103","2.1.0","203536","F=YES, J=NO","wntxvhojml","2","75","75","75","","","","","","","","","","","","","","","",""
"null","audio/beep-329314.mp3","null","audio-keyboard-response","104","2.1.0","205065","F=YES, J=NO","wntxvhojml","2","75","75","75","","","","","","","","","","","","","","","",""
"null","audio/hawk1.wav","null","audio-keyboard-response","105","2.1.0","205695","F=YES, J=NO","wntxvhojml","2","75","75","75","","","","","","","","","","","","","","","",""
"893","
          <p id=""word"" style=""font-size: 40px;"">ostach</p>
          <p style=""font-size: 16px;"">F = YES &nbsp;&nbsp;&nbsp; J = NO</p>
        ","j","html-keyboard-response","106","2.1.0","206590","F=YES, J=NO","wntxvhojml","2","75","75","75","","","","","","","","","ostach","hawk1","pseudoword","pseudoword","j","true","",""
"null","<p style=""font-size: 50px;"">+</p>","null","html-keyboard-response","107","2.1.0","206894","F=YES, J=NO","wntxvhojml","2","75","75","75","","","","","","","","","","","","","","","",""
"null","audio/beep-329314.mp3","null","audio-keyboard-response","108","2.1.0","208425","F=YES, J=NO","wntxvhojml","2","75","75","75","","","","","","","","","","","","","","","",""
"null","audio/brain.wav","null","audio-keyboard-response","109","2.1.0","209055","F=YES, J=NO","wntxvhojml","2","75","75","75","","","","","","","","","","","","","","","",""
"679","
          <p id=""word"" style=""font-size: 40px;"">throw</p>
          <p style=""font-size: 16px;"">F = YES &nbsp;&nbsp;&nbsp; J = NO</p>
        ","f","html-keyboard-response","110","2.1.0","209736","F=YES, J=NO","wntxvhojml","2","75","75","75","","","","","","","","","throw","brain","filler","filler","f","true","",""
"null","<p style=""font-size: 50px;"">+</p>","null","html-keyboard-response","111","2.1.0","210038","F=YES, J=NO","wntxvhojml","2","75","75","75","","","","","","","","","","","","","","","",""
"null","audio/beep-329314.mp3","null","audio-keyboard-response","112","2.1.0","211565","F=YES, J=NO","wntxvhojml","2","75","75","75","","","","","","","","","","","","","","","",""
"null","audio/butter1.wav","null","audio-keyboard-response","113","2.1.0","212055","F=YES, J=NO","wntxvhojml","2","75","75","75","","","","","","","","","","","","","","","",""
"637","
          <p id=""word"" style=""font-size: 40px;"">chew</p>
          <p style=""font-size: 16px;"">F = YES &nbsp;&nbsp;&nbsp; J = NO</p>
        ","f","html-keyboard-response","114","2.1.0","212694","F=YES, J=NO","wntxvhojml","2","75","75","75","","","","","","","","","chew","butter1","filler","filler","f","true","",""
"1050","<p>Starting practice block 2 of 2. Press any key to continue.</p>"," ","html-keyboard-response","115","2.1.0","213745","F=YES, J=NO","wntxvhojml","2","75","75","75","","","","","","","","","","","","","","","",""
"null","<p style=""font-size: 50px;"">+</p>","null","html-keyboard-response","116","2.1.0","214061","F=YES, J=NO","wntxvhojml","2","75","75","75","","","","","","","","","","","","","","","",""
"null","audio/beep-329314.mp3","null","audio-keyboard-response","117","2.1.0","215585","F=YES, J=NO","wntxvhojml","2","75","75","75","","","","","","","","","","","","","","","",""
"null","audio/novel.wav","null","audio-keyboard-response","118","2.1.0","216135","F=YES, J=NO","wntxvhojml","2","75","75","75","","","","","","","","","","","","","","","",""
"526","
          <p id=""word"" style=""font-size: 40px;"">type</p>
          <p style=""font-size: 16px;"">F = YES &nbsp;&nbsp;&nbsp; J = NO</p>
        ","f","html-keyboard-response","119","2.1.0","216661","F=YES, J=NO","wntxvhojml","2","75","75","75","","","","","","","","","type","novel","filler","filler","f","true","",""
"null","<p style=""font-size: 50px;"">+</p>","null","html-keyboard-response","120","2.1.0","216977","F=YES, J=NO","wntxvhojml","2","75","75","75","","","","","","","","","","","","","","","",""
"null","audio/beep-329314.mp3","null","audio-keyboard-response","121","2.1.0","218505","F=YES, J=NO","wntxvhojml","2","75","75","75","","","","","","","","","","","","","","","",""
"null","audio/cancer1.wav","null","audio-keyboard-response","122","2.1.0","219095","F=YES, J=NO","wntxvhojml","2","75","75","75","","","","","","","","","","","","","","","",""
"592","
          <p id=""word"" style=""font-size: 40px;"">draw</p>
          <p style=""font-size: 16px;"">F = YES &nbsp;&nbsp;&nbsp; J = NO</p>
        ","f","html-keyboard-response","123","2.1.0","219688","F=YES, J=NO","wntxvhojml","2","75","75","75","","","","","","","","","draw","cancer1","filler","filler","f","true","",""
"null","<p style=""font-size: 50px;"">+</p>","null","html-keyboard-response","124","2.1.0","219994","F=YES, J=NO","wntxvhojml","2","75","75","75","","","","","","","","","","","","","","","",""
"null","audio/beep-329314.mp3","null","audio-keyboard-response","125","2.1.0","221525","F=YES, J=NO","wntxvhojml","2","75","75","75","","","","","","","","","","","","","","","",""
"null","audio/bridge.wav","null","audio-keyboard-response","126","2.1.0","222074","F=YES, J=NO","wntxvhojml","2","75","75","75","","","","","","","","","","","","","","","",""
"633","
          <p id=""word"" style=""font-size: 40px;"">crack</p>
          <p style=""font-size: 16px;"">F = YES &nbsp;&nbsp;&nbsp; J = NO</p>
        ","f","html-keyboard-response","127","2.1.0","222708","F=YES, J=NO","wntxvhojml","2","75","75","75","","","","","","","","","crack","bridge","filler","filler","f","true","",""
"null","<p style=""font-size: 50px;"">+</p>","null","html-keyboard-response","128","2.1.0","223013","F=YES, J=NO","wntxvhojml","2","75","75","75","","","","","","","","","","","","","","","",""
"null","audio/beep-329314.mp3","null","audio-keyboard-response","129","2.1.0","224546","F=YES, J=NO","wntxvhojml","2","75","75","75","","","","","","","","","","","","","","","",""
"null","audio/gift1.wav","null","audio-keyboard-response","130","2.1.0","225014","F=YES, J=NO","wntxvhojml","2","75","75","75","","","","","","","","","","","","","","","",""
"872","
          <p id=""word"" style=""font-size: 40px;"">protsh</p>
          <p style=""font-size: 16px;"">F = YES &nbsp;&nbsp;&nbsp; J = NO</p>
        ","j","html-keyboard-response","131","2.1.0","225887","F=YES, J=NO","wntxvhojml","2","75","75","75","","","","","","","","","protsh","gift1","pseudoword","pseudoword","j","true","",""
"null","<p style=""font-size: 50px;"">+</p>","null","html-keyboard-response","132","2.1.0","226190","F=YES, J=NO","wntxvhojml","2","75","75","75","","","","","","","","","","","","","","","",""
"null","audio/beep-329314.mp3","null","audio-keyboard-response","133","2.1.0","227724","F=YES, J=NO","wntxvhojml","2","75","75","75","","","","","","","","","","","","","","","",""
"null","audio/tax1.wav","null","audio-keyboard-response","134","2.1.0","228375","F=YES, J=NO","wntxvhojml","2","75","75","75","","","","","","","","","","","","","","","",""
"750","
          <p id=""word"" style=""font-size: 40px;"">snate</p>
          <p style=""font-size: 16px;"">F = YES &nbsp;&nbsp;&nbsp; J = NO</p>
        ","j","html-keyboard-response","135","2.1.0","229127","F=YES, J=NO","wntxvhojml","2","75","75","75","","","","","","","","","snate","tax1","pseudoword","pseudoword","j","true","",""
"null","<p style=""font-size: 50px;"">+</p>","null","html-keyboard-response","136","2.1.0","229437","F=YES, J=NO","wntxvhojml","2","75","75","75","","","","","","","","","","","","","","","",""
"null","audio/beep-329314.mp3","null","audio-keyboard-response","137","2.1.0","230966","F=YES, J=NO","wntxvhojml","2","75","75","75","","","","","","","","","","","","","","","",""
"null","audio/fence.wav","null","audio-keyboard-response","138","2.1.0","231675","F=YES, J=NO","wntxvhojml","2","75","75","75","","","","","","","","","","","","","","","",""
"611","
          <p id=""word"" style=""font-size: 40px;"">trim</p>
          <p style=""font-size: 16px;"">F = YES &nbsp;&nbsp;&nbsp; J = NO</p>
        ","f","html-keyboard-response","139","2.1.0","232288","F=YES, J=NO","wntxvhojml","2","75","75","75","","","","","","","","","trim","fence","filler","filler","f","true","",""
"null","<p style=""font-size: 50px;"">+</p>","null","html-keyboard-response","140","2.1.0","232599","F=YES, J=NO","wntxvhojml","2","75","75","75","","","","","","","","","","","","","","","",""
"null","audio/beep-329314.mp3","null","audio-keyboard-response","141","2.1.0","234126","F=YES, J=NO","wntxvhojml","2","75","75","75","","","","","","","","","","","","","","","",""
"null","audio/budget1.wav","null","audio-keyboard-response","142","2.1.0","234795","F=YES, J=NO","wntxvhojml","2","75","75","75","","","","","","","","","","","","","","","",""
"756","
          <p id=""word"" style=""font-size: 40px;"">sulist</p>
          <p style=""font-size: 16px;"">F = YES &nbsp;&nbsp;&nbsp; J = NO</p>
        ","j","html-keyboard-response","143","2.1.0","235552","F=YES, J=NO","wntxvhojml","2","75","75","75","","","","","","","","","sulist","budget1","pseudoword","pseudoword","j","true","",""
"null","<p style=""font-size: 50px;"">+</p>","null","html-keyboard-response","144","2.1.0","235855","F=YES, J=NO","wntxvhojml","2","75","75","75","","","","","","","","","","","","","","","",""
"null","audio/beep-329314.mp3","null","audio-keyboard-response","145","2.1.0","237390","F=YES, J=NO","wntxvhojml","2","75","75","75","","","","","","","","","","","","","","","",""
"null","audio/breath.wav","null","audio-keyboard-response","146","2.1.0","237961","F=YES, J=NO","wntxvhojml","2","75","75","75","","","","","","","","","","","","","","","",""
"1018","
          <p id=""word"" style=""font-size: 40px;"">twets</p>
          <p style=""font-size: 16px;"">F = YES &nbsp;&nbsp;&nbsp; J = NO</p>
        ","j","html-keyboard-response","147","2.1.0","238981","F=YES, J=NO","wntxvhojml","2","75","75","75","","","","","","","","","twets","breath","pseudoword","pseudoword","j","true","",""
"null","<p style=""font-size: 50px;"">+</p>","null","html-keyboard-response","148","2.1.0","239285","F=YES, J=NO","wntxvhojml","2","75","75","75","","","","","","","","","","","","","","","",""
"null","audio/beep-329314.mp3","null","audio-keyboard-response","149","2.1.0","240811","F=YES, J=NO","wntxvhojml","2","75","75","75","","","","","","","","","","","","","","","",""
"null","audio/account1.wav","null","audio-keyboard-response","150","2.1.0","241561","F=YES, J=NO","wntxvhojml","2","75","75","75","","","","","","","","","","","","","","","",""
"953","
          <p id=""word"" style=""font-size: 40px;"">paint</p>
          <p style=""font-size: 16px;"">F = YES &nbsp;&nbsp;&nbsp; J = NO</p>
        ","f","html-keyboard-response","151","2.1.0","242516","F=YES, J=NO","wntxvhojml","2","75","75","75","","","","","","","","","paint","account1","filler","filler","f","true","",""
"null","<p style=""font-size: 50px;"">+</p>","null","html-keyboard-response","152","2.1.0","242821","F=YES, J=NO","wntxvhojml","2","75","75","75","","","","","","","","","","","","","","","",""
"null","audio/beep-329314.mp3","null","audio-keyboard-response","153","2.1.0","244351","F=YES, J=NO","wntxvhojml","2","75","75","75","","","","","","","","","","","","","","","",""
"null","audio/prisoner.wav","null","audio-keyboard-response","154","2.1.0","244901","F=YES, J=NO","wntxvhojml","2","75","75","75","","","","","","","","","","","","","","","",""
"918","
          <p id=""word"" style=""font-size: 40px;"">egotian</p>
          <p style=""font-size: 16px;"">F = YES &nbsp;&nbsp;&nbsp; J = NO</p>
        ","j","html-keyboard-response","155","2.1.0","245821","F=YES, J=NO","wntxvhojml","2","75","75","75","","","","","","","","","egotian","prisoner","pseudoword","pseudoword","j","true","",""
"null","<p style=""font-size: 50px;"">+</p>","null","html-keyboard-response","156","2.1.0","246133","F=YES, J=NO","wntxvhojml","2","75","75","75","","","","","","","","","","","","","","","",""
"null","audio/beep-329314.mp3","null","audio-keyboard-response","157","2.1.0","247671","F=YES, J=NO","wntxvhojml","2","75","75","75","","","","","","","","","","","","","","","",""
"null","audio/beach1.wav","null","audio-keyboard-response","158","2.1.0","248260","F=YES, J=NO","wntxvhojml","2","75","75","75","","","","","","","","","","","","","","","",""
"801","
          <p id=""word"" style=""font-size: 40px;"">drive</p>
          <p style=""font-size: 16px;"">F = YES &nbsp;&nbsp;&nbsp; J = NO</p>
        ","f","html-keyboard-response","159","2.1.0","249062","F=YES, J=NO","wntxvhojml","2","75","75","75","","","","","","","","","drive","beach1","filler","filler","f","true","",""
"null","<p style=""font-size: 50px;"">+</p>","null","html-keyboard-response","160","2.1.0","249368","F=YES, J=NO","wntxvhojml","2","75","75","75","","","","","","","","","","","","","","","",""
"null","audio/beep-329314.mp3","null","audio-keyboard-response","161","2.1.0","250890","F=YES, J=NO","wntxvhojml","2","75","75","75","","","","","","","","","","","","","","","",""
"null","audio/client1.wav","null","audio-keyboard-response","162","2.1.0","251620","F=YES, J=NO","wntxvhojml","2","75","75","75","","","","","","","","","","","","","","","",""
"723","
          <p id=""word"" style=""font-size: 40px;"">droothe</p>
          <p style=""font-size: 16px;"">F = YES &nbsp;&nbsp;&nbsp; J = NO</p>
        ","j","html-keyboard-response","163","2.1.0","252344","F=YES, J=NO","wntxvhojml","2","75","75","75","","","","","","","","","droothe","client1","pseudoword","pseudoword","j","true","",""
"79995","
    <div style=""max-width: 800px; margin: auto; text-align: left;"">
      <h2>Part 2: Main Trials</h2>
      <p>Great job on the practice trials!</p>
      <p>You will now begin the <strong>main set of trials</strong>.</p>
      <p>Remember your key assignments:</p>
      <ul>
        <li><strong>F</strong> = YES (real English word)</li>
        <li><strong>J</strong> = NO (not a real English word)</li>
      </ul>
      <p>Try to respond as <strong>quickly and accurately</strong> as possible.</p>
      <p style=""margin-top: 2em;"">Press any key to begin the main trials.</p>
    </div>
  "," ","html-keyboard-response","164","2.1.0","332350","F=YES, J=NO","wntxvhojml","2","75","75","75","","","","","","","","","","","","","","","",""
"1040","<p>Starting main block 1 of 8. Press any key to continue.</p>"," ","html-keyboard-response","165","2.1.0","333391","F=YES, J=NO","wntxvhojml","2","75","75","75","","","","","","","","","","","","","","","",""
"null","<p style=""font-size: 50px;"">+</p>","null","html-keyboard-response","166","2.1.0","333698","F=YES, J=NO","wntxvhojml","2","75","75","75","","","","","","","","","","","","","","","",""
"null","audio/beep-329314.mp3","null","audio-keyboard-response","167","2.1.0","335265","F=YES, J=NO","wntxvhojml","2","75","75","75","","","","","","","","","","","","","","","",""
"null","audio/handle.wav","null","audio-keyboard-response","168","2.1.0","335874","F=YES, J=NO","wntxvhojml","2","75","75","75","","","","","","","","","","","","","","","",""
"773","
          <p id=""word"" style=""font-size: 40px;"">moutes</p>
          <p style=""font-size: 16px;"">F = YES &nbsp;&nbsp;&nbsp; J = NO</p>
        ","j","html-keyboard-response","169","2.1.0","336648","F=YES, J=NO","wntxvhojml","2","75","75","75","","","","","","","","","moutes","handle","pseudoword","pseudoword","j","true","",""
"null","<p style=""font-size: 50px;"">+</p>","null","html-keyboard-response","170","2.1.0","336960","F=YES, J=NO","wntxvhojml","2","75","75","75","","","","","","","","","","","","","","","",""
"null","audio/beep-329314.mp3","null","audio-keyboard-response","171","2.1.0","338485","F=YES, J=NO","wntxvhojml","2","75","75","75","","","","","","","","","","","","","","","",""
"null","audio/flaw.wav","null","audio-keyboard-response","172","2.1.0","339134","F=YES, J=NO","wntxvhojml","2","75","75","75","","","","","","","","","","","","","","","",""
"null","
          <p id=""word"" style=""font-size: 40px;"">thwool</p>
          <p style=""font-size: 16px;"">F = YES &nbsp;&nbsp;&nbsp; J = NO</p>
        ","null","html-keyboard-response","173","2.1.0","340649","F=YES, J=NO","wntxvhojml","2","75","75","75","","","","","","","","","thwool","flaw","pseudoword","pseudoword","j","false","",""
"null","<p style=""font-size: 50px;"">+</p>","null","html-keyboard-response","174","2.1.0","340960","F=YES, J=NO","wntxvhojml","2","75","75","75","","","","","","","","","","","","","","","",""
"null","audio/beep-329314.mp3","null","audio-keyboard-response","175","2.1.0","342484","F=YES, J=NO","wntxvhojml","2","75","75","75","","","","","","","","","","","","","","","",""
"null","audio/garden1.wav","null","audio-keyboard-response","176","2.1.0","343016","F=YES, J=NO","wntxvhojml","2","75","75","75","","","","","","","","","","","","","","","",""
"570","
          <p id=""word"" style=""font-size: 40px;"">invest</p>
          <p style=""font-size: 16px;"">F = YES &nbsp;&nbsp;&nbsp; J = NO</p>
        ","f","html-keyboard-response","177","2.1.0","343587","F=YES, J=NO","wntxvhojml","2","75","75","75","","","","","","","","","invest","garden1","unrelated","experimental","f","true","",""
"null","<p style=""font-size: 50px;"">+</p>","null","html-keyboard-response","178","2.1.0","343901","F=YES, J=NO","wntxvhojml","2","75","75","75","","","","","","","","","","","","","","","",""
"null","audio/beep-329314.mp3","null","audio-keyboard-response","179","2.1.0","345425","F=YES, J=NO","wntxvhojml","2","75","75","75","","","","","","","","","","","","","","","",""
"null","audio/bishop1.wav","null","audio-keyboard-response","180","2.1.0","346035","F=YES, J=NO","wntxvhojml","2","75","75","75","","","","","","","","","","","","","","","",""
"569","
          <p id=""word"" style=""font-size: 40px;"">play</p>
          <p style=""font-size: 16px;"">F = YES &nbsp;&nbsp;&nbsp; J = NO</p>
        ","f","html-keyboard-response","181","2.1.0","346606","F=YES, J=NO","wntxvhojml","2","75","75","75","","","","","","","","","play","bishop1","filler","filler","f","true","",""
"null","<p style=""font-size: 50px;"">+</p>","null","html-keyboard-response","182","2.1.0","346907","F=YES, J=NO","wntxvhojml","2","75","75","75","","","","","","","","","","","","","","","",""
"null","audio/beep-329314.mp3","null","audio-keyboard-response","183","2.1.0","348446","F=YES, J=NO","wntxvhojml","2","75","75","75","","","","","","","","","","","","","","","",""
"null","audio/cloud1.wav","null","audio-keyboard-response","184","2.1.0","348995","F=YES, J=NO","wntxvhojml","2","75","75","75","","","","","","","","","","","","","","","",""
"875","
          <p id=""word"" style=""font-size: 40px;"">brotant</p>
          <p style=""font-size: 16px;"">F = YES &nbsp;&nbsp;&nbsp; J = NO</p>
        ","j","html-keyboard-response","185","2.1.0","349871","F=YES, J=NO","wntxvhojml","2","75","75","75","","","","","","","","","brotant","cloud1","pseudoword","pseudoword","j","true","",""
"null","<p style=""font-size: 50px;"">+</p>","null","html-keyboard-response","186","2.1.0","350184","F=YES, J=NO","wntxvhojml","2","75","75","75","","","","","","","","","","","","","","","",""
"null","audio/beep-329314.mp3","null","audio-keyboard-response","187","2.1.0","351726","F=YES, J=NO","wntxvhojml","2","75","75","75","","","","","","","","","","","","","","","",""
"null","audio/radio1.wav","null","audio-keyboard-response","188","2.1.0","352314","F=YES, J=NO","wntxvhojml","2","75","75","75","","","","","","","","","","","","","","","",""
"1398","
          <p id=""word"" style=""font-size: 40px;"">blanter</p>
          <p style=""font-size: 16px;"">F = YES &nbsp;&nbsp;&nbsp; J = NO</p>
        ","j","html-keyboard-response","189","2.1.0","353713","F=YES, J=NO","wntxvhojml","2","75","75","75","","","","","","","","","blanter","radio1","pseudoword","pseudoword","j","true","",""
"null","<p style=""font-size: 50px;"">+</p>","null","html-keyboard-response","190","2.1.0","354027","F=YES, J=NO","wntxvhojml","2","75","75","75","","","","","","","","","","","","","","","",""
"null","audio/beep-329314.mp3","null","audio-keyboard-response","191","2.1.0","355564","F=YES, J=NO","wntxvhojml","2","75","75","75","","","","","","","","","","","","","","","",""
"null","audio/holiday1.wav","null","audio-keyboard-response","192","2.1.0","356195","F=YES, J=NO","wntxvhojml","2","75","75","75","","","","","","","","","","","","","","","",""
"785","
          <p id=""word"" style=""font-size: 40px;"">drivets</p>
          <p style=""font-size: 16px;"">F = YES &nbsp;&nbsp;&nbsp; J = NO</p>
        ","j","html-keyboard-response","193","2.1.0","356981","F=YES, J=NO","wntxvhojml","2","75","75","75","","","","","","","","","drivets","holiday1","pseudoword","pseudoword","j","true","",""
"null","<p style=""font-size: 50px;"">+</p>","null","html-keyboard-response","194","2.1.0","357298","F=YES, J=NO","wntxvhojml","2","75","75","75","","","","","","","","","","","","","","","",""
"null","audio/beep-329314.mp3","null","audio-keyboard-response","195","2.1.0","358826","F=YES, J=NO","wntxvhojml","2","75","75","75","","","","","","","","","","","","","","","",""
"null","audio/show.wav","null","audio-keyboard-response","196","2.1.0","359375","F=YES, J=NO","wntxvhojml","2","75","75","75","","","","","","","","","","","","","","","",""
"932","
          <p id=""word"" style=""font-size: 40px;"">smark</p>
          <p style=""font-size: 16px;"">F = YES &nbsp;&nbsp;&nbsp; J = NO</p>
        ","j","html-keyboard-response","197","2.1.0","360309","F=YES, J=NO","wntxvhojml","2","75","75","75","","","","","","","","","smark","show","pseudoword","pseudoword","j","true","",""
"null","<p style=""font-size: 50px;"">+</p>","null","html-keyboard-response","198","2.1.0","360610","F=YES, J=NO","wntxvhojml","2","75","75","75","","","","","","","","","","","","","","","",""
"null","audio/beep-329314.mp3","null","audio-keyboard-response","199","2.1.0","362146","F=YES, J=NO","wntxvhojml","2","75","75","75","","","","","","","","","","","","","","","",""
"null","audio/heart1.wav","null","audio-keyboard-response","200","2.1.0","362774","F=YES, J=NO","wntxvhojml","2","75","75","75","","","","","","","","","","","","","","","",""
"615","
          <p id=""word"" style=""font-size: 40px;"">touch</p>
          <p style=""font-size: 16px;"">F = YES &nbsp;&nbsp;&nbsp; J = NO</p>
        ","f","html-keyboard-response","201","2.1.0","363391","F=YES, J=NO","wntxvhojml","2","75","75","75","","","","","","","","","touch","heart1","metaphor","experimental","f","true","",""
"null","<p style=""font-size: 50px;"">+</p>","null","html-keyboard-response","202","2.1.0","363696","F=YES, J=NO","wntxvhojml","2","75","75","75","","","","","","","","","","","","","","","",""
"null","audio/beep-329314.mp3","null","audio-keyboard-response","203","2.1.0","365225","F=YES, J=NO","wntxvhojml","2","75","75","75","","","","","","","","","","","","","","","",""
"null","audio/topic.wav","null","audio-keyboard-response","204","2.1.0","365915","F=YES, J=NO","wntxvhojml","2","75","75","75","","","","","","","","","","","","","","","",""
"1159","
          <p id=""word"" style=""font-size: 40px;"">infortuitist</p>
          <p style=""font-size: 16px;"">F = YES &nbsp;&nbsp;&nbsp; J = NO</p>
        ","j","html-keyboard-response","205","2.1.0","367075","F=YES, J=NO","wntxvhojml","2","75","75","75","","","","","","","","","infortuitist","topic","pseudoword","pseudoword","j","true","",""
"null","<p style=""font-size: 50px;"">+</p>","null","html-keyboard-response","206","2.1.0","367388","F=YES, J=NO","wntxvhojml","2","75","75","75","","","","","","","","","","","","","","","",""
"null","audio/beep-329314.mp3","null","audio-keyboard-response","207","2.1.0","368925","F=YES, J=NO","wntxvhojml","2","75","75","75","","","","","","","","","","","","","","","",""
"null","audio/trust.wav","null","audio-keyboard-response","208","2.1.0","369555","F=YES, J=NO","wntxvhojml","2","75","75","75","","","","","","","","","","","","","","","",""
"877","
          <p id=""word"" style=""font-size: 40px;"">swint</p>
          <p style=""font-size: 16px;"">F = YES &nbsp;&nbsp;&nbsp; J = NO</p>
        ","j","html-keyboard-response","209","2.1.0","370433","F=YES, J=NO","wntxvhojml","2","75","75","75","","","","","","","","","swint","trust","pseudoword","pseudoword","j","true","",""
"null","<p style=""font-size: 50px;"">+</p>","null","html-keyboard-response","210","2.1.0","370749","F=YES, J=NO","wntxvhojml","2","75","75","75","","","","","","","","","","","","","","","",""
"null","audio/beep-329314.mp3","null","audio-keyboard-response","211","2.1.0","372286","F=YES, J=NO","wntxvhojml","2","75","75","75","","","","","","","","","","","","","","","",""
"null","audio/fear.wav","null","audio-keyboard-response","212","2.1.0","372854","F=YES, J=NO","wntxvhojml","2","75","75","75","","","","","","","","","","","","","","","",""
"652","
          <p id=""word"" style=""font-size: 40px;"">spread</p>
          <p style=""font-size: 16px;"">F = YES &nbsp;&nbsp;&nbsp; J = NO</p>
        ","f","html-keyboard-response","213","2.1.0","373508","F=YES, J=NO","wntxvhojml","2","75","75","75","","","","","","","","","spread","fear","metaphor","experimental","f","true","",""
"null","<p style=""font-size: 50px;"">+</p>","null","html-keyboard-response","214","2.1.0","373814","F=YES, J=NO","wntxvhojml","2","75","75","75","","","","","","","","","","","","","","","",""
"null","audio/beep-329314.mp3","null","audio-keyboard-response","215","2.1.0","375346","F=YES, J=NO","wntxvhojml","2","75","75","75","","","","","","","","","","","","","","","",""
"null","audio/van1.wav","null","audio-keyboard-response","216","2.1.0","375815","F=YES, J=NO","wntxvhojml","2","75","75","75","","","","","","","","","","","","","","","",""
"535","
          <p id=""word"" style=""font-size: 40px;"">support</p>
          <p style=""font-size: 16px;"">F = YES &nbsp;&nbsp;&nbsp; J = NO</p>
        ","f","html-keyboard-response","217","2.1.0","376352","F=YES, J=NO","wntxvhojml","2","75","75","75","","","","","","","","","support","van1","unrelated","experimental","f","true","",""
"null","<p style=""font-size: 50px;"">+</p>","null","html-keyboard-response","218","2.1.0","376667","F=YES, J=NO","wntxvhojml","2","75","75","75","","","","","","","","","","","","","","","",""
"null","audio/beep-329314.mp3","null","audio-keyboard-response","219","2.1.0","378206","F=YES, J=NO","wntxvhojml","2","75","75","75","","","","","","","","","","","","","","","",""
"null","audio/gift1.wav","null","audio-keyboard-response","220","2.1.0","378656","F=YES, J=NO","wntxvhojml","2","75","75","75","","","","","","","","","","","","","","","",""
"572","
          <p id=""word"" style=""font-size: 40px;"">give</p>
          <p style=""font-size: 16px;"">F = YES &nbsp;&nbsp;&nbsp; J = NO</p>
        ","f","html-keyboard-response","221","2.1.0","379230","F=YES, J=NO","wntxvhojml","2","75","75","75","","","","","","","","","give","gift1","literal","experimental","f","true","",""
"null","<p style=""font-size: 50px;"">+</p>","null","html-keyboard-response","222","2.1.0","379535","F=YES, J=NO","wntxvhojml","2","75","75","75","","","","","","","","","","","","","","","",""
"null","audio/beep-329314.mp3","null","audio-keyboard-response","223","2.1.0","381065","F=YES, J=NO","wntxvhojml","2","75","75","75","","","","","","","","","","","","","","","",""
"null","audio/age1.wav","null","audio-keyboard-response","224","2.1.0","381615","F=YES, J=NO","wntxvhojml","2","75","75","75","","","","","","","","","","","","","","","",""
"732","
          <p id=""word"" style=""font-size: 40px;"">lachry</p>
          <p style=""font-size: 16px;"">F = YES &nbsp;&nbsp;&nbsp; J = NO</p>
        ","j","html-keyboard-response","225","2.1.0","382349","F=YES, J=NO","wntxvhojml","2","75","75","75","","","","","","","","","lachry","age1","pseudoword","pseudoword","j","true","",""
"null","<p style=""font-size: 50px;"">+</p>","null","html-keyboard-response","226","2.1.0","382659","F=YES, J=NO","wntxvhojml","2","75","75","75","","","","","","","","","","","","","","","",""
"null","audio/beep-329314.mp3","null","audio-keyboard-response","227","2.1.0","384186","F=YES, J=NO","wntxvhojml","2","75","75","75","","","","","","","","","","","","","","","",""
"null","audio/roof1.wav","null","audio-keyboard-response","228","2.1.0","384875","F=YES, J=NO","wntxvhojml","2","75","75","75","","","","","","","","","","","","","","","",""
"756","
          <p id=""word"" style=""font-size: 40px;"">wronb</p>
          <p style=""font-size: 16px;"">F = YES &nbsp;&nbsp;&nbsp; J = NO</p>
        ","j","html-keyboard-response","229","2.1.0","385632","F=YES, J=NO","wntxvhojml","2","75","75","75","","","","","","","","","wronb","roof1","pseudoword","pseudoword","j","true","",""
"230492","<p>Excellent! You have finished block 1 of 8.</p>
                     <p>Feel free to take a 30 second break.</p>
                     <p>Press any key when you're ready to continue.</p>"," ","html-keyboard-response","230","2.1.0","616153","F=YES, J=NO","wntxvhojml","2","75","75","75","","","","","","","","","","","","","","","",""
"1474","<p>Starting main block 2 of 8. Press any key to continue.</p>"," ","html-keyboard-response","231","2.1.0","617628","F=YES, J=NO","wntxvhojml","2","75","75","75","","","","","","","","","","","","","","","",""
"null","<p style=""font-size: 50px;"">+</p>","null","html-keyboard-response","232","2.1.0","617940","F=YES, J=NO","wntxvhojml","2","75","75","75","","","","","","","","","","","","","","","",""
"null","audio/beep-329314.mp3","null","audio-keyboard-response","233","2.1.0","619481","F=YES, J=NO","wntxvhojml","2","75","75","75","","","","","","","","","","","","","","","",""
"null","audio/relief.wav","null","audio-keyboard-response","234","2.1.0","620150","F=YES, J=NO","wntxvhojml","2","75","75","75","","","","","","","","","","","","","","","",""
"null","
          <p id=""word"" style=""font-size: 40px;"">bring</p>
          <p style=""font-size: 16px;"">F = YES &nbsp;&nbsp;&nbsp; J = NO</p>
        ","null","html-keyboard-response","235","2.1.0","621661","F=YES, J=NO","wntxvhojml","2","75","75","75","","","","","","","","","bring","relief","metaphor","experimental","f","false","",""
"null","<p style=""font-size: 50px;"">+</p>","null","html-keyboard-response","236","2.1.0","621971","F=YES, J=NO","wntxvhojml","2","75","75","75","","","","","","","","","","","","","","","",""
"null","audio/beep-329314.mp3","null","audio-keyboard-response","237","2.1.0","623500","F=YES, J=NO","wntxvhojml","2","75","75","75","","","","","","","","","","","","","","","",""
"null","audio/purpose.wav","null","audio-keyboard-response","238","2.1.0","624211","F=YES, J=NO","wntxvhojml","2","75","75","75","","","","","","","","","","","","","","","",""
"779","
          <p id=""word"" style=""font-size: 40px;"">whigm</p>
          <p style=""font-size: 16px;"">F = YES &nbsp;&nbsp;&nbsp; J = NO</p>
        ","j","html-keyboard-response","239","2.1.0","624991","F=YES, J=NO","wntxvhojml","2","75","75","75","","","","","","","","","whigm","purpose","pseudoword","pseudoword","j","true","",""
"null","<p style=""font-size: 50px;"">+</p>","null","html-keyboard-response","240","2.1.0","625297","F=YES, J=NO","wntxvhojml","2","75","75","75","","","","","","","","","","","","","","","",""
"null","audio/beep-329314.mp3","null","audio-keyboard-response","241","2.1.0","626821","F=YES, J=NO","wntxvhojml","2","75","75","75","","","","","","","","","","","","","","","",""
"null","audio/foe1.wav","null","audio-keyboard-response","242","2.1.0","627370","F=YES, J=NO","wntxvhojml","2","75","75","75","","","","","","","","","","","","","","","",""
"696","
          <p id=""word"" style=""font-size: 40px;"">creth</p>
          <p style=""font-size: 16px;"">F = YES &nbsp;&nbsp;&nbsp; J = NO</p>
        ","j","html-keyboard-response","243","2.1.0","628068","F=YES, J=NO","wntxvhojml","2","75","75","75","","","","","","","","","creth","foe1","pseudoword","pseudoword","j","true","",""
"null","<p style=""font-size: 50px;"">+</p>","null","html-keyboard-response","244","2.1.0","628382","F=YES, J=NO","wntxvhojml","2","75","75","75","","","","","","","","","","","","","","","",""
"null","audio/beep-329314.mp3","null","audio-keyboard-response","245","2.1.0","629921","F=YES, J=NO","wntxvhojml","2","75","75","75","","","","","","","","","","","","","","","",""
"null","audio/gold1.wav","null","audio-keyboard-response","246","2.1.0","630470","F=YES, J=NO","wntxvhojml","2","75","75","75","","","","","","","","","","","","","","","",""
"581","
          <p id=""word"" style=""font-size: 40px;"">sell</p>
          <p style=""font-size: 16px;"">F = YES &nbsp;&nbsp;&nbsp; J = NO</p>
        ","f","html-keyboard-response","247","2.1.0","631052","F=YES, J=NO","wntxvhojml","2","75","75","75","","","","","","","","","sell","gold1","literal","experimental","f","true","",""
"null","<p style=""font-size: 50px;"">+</p>","null","html-keyboard-response","248","2.1.0","631363","F=YES, J=NO","wntxvhojml","2","75","75","75","","","","","","","","","","","","","","","",""
"null","audio/beep-329314.mp3","null","audio-keyboard-response","249","2.1.0","632900","F=YES, J=NO","wntxvhojml","2","75","75","75","","","","","","","","","","","","","","","",""
"null","audio/corpse1.wav","null","audio-keyboard-response","250","2.1.0","633531","F=YES, J=NO","wntxvhojml","2","75","75","75","","","","","","","","","","","","","","","",""
"618","
          <p id=""word"" style=""font-size: 40px;"">glonet</p>
          <p style=""font-size: 16px;"">F = YES &nbsp;&nbsp;&nbsp; J = NO</p>
        ","j","html-keyboard-response","251","2.1.0","634150","F=YES, J=NO","wntxvhojml","2","75","75","75","","","","","","","","","glonet","corpse1","pseudoword","pseudoword","j","true","",""
"null","<p style=""font-size: 50px;"">+</p>","null","html-keyboard-response","252","2.1.0","634459","F=YES, J=NO","wntxvhojml","2","75","75","75","","","","","","","","","","","","","","","",""
"null","audio/beep-329314.mp3","null","audio-keyboard-response","253","2.1.0","636000","F=YES, J=NO","wntxvhojml","2","75","75","75","","","","","","","","","","","","","","","",""
"null","audio/survey1.wav","null","audio-keyboard-response","254","2.1.0","636730","F=YES, J=NO","wntxvhojml","2","75","75","75","","","","","","","","","","","","","","","",""
"677","
          <p id=""word"" style=""font-size: 40px;"">imploth</p>
          <p style=""font-size: 16px;"">F = YES &nbsp;&nbsp;&nbsp; J = NO</p>
        ","j","html-keyboard-response","255","2.1.0","637409","F=YES, J=NO","wntxvhojml","2","75","75","75","","","","","","","","","imploth","survey1","pseudoword","pseudoword","j","true","",""
"null","<p style=""font-size: 50px;"">+</p>","null","html-keyboard-response","256","2.1.0","637717","F=YES, J=NO","wntxvhojml","2","75","75","75","","","","","","","","","","","","","","","",""
"null","audio/beep-329314.mp3","null","audio-keyboard-response","257","2.1.0","639241","F=YES, J=NO","wntxvhojml","2","75","75","75","","","","","","","","","","","","","","","",""
"null","audio/uncle1.wav","null","audio-keyboard-response","258","2.1.0","639771","F=YES, J=NO","wntxvhojml","2","75","75","75","","","","","","","","","","","","","","","",""
"778","
          <p id=""word"" style=""font-size: 40px;"">dramble</p>
          <p style=""font-size: 16px;"">F = YES &nbsp;&nbsp;&nbsp; J = NO</p>
        ","j","html-keyboard-response","259","2.1.0","640550","F=YES, J=NO","wntxvhojml","2","75","75","75","","","","","","","","","dramble","uncle1","pseudoword","pseudoword","j","true","",""
"null","<p style=""font-size: 50px;"">+</p>","null","html-keyboard-response","260","2.1.0","640857","F=YES, J=NO","wntxvhojml","2","75","75","75","","","","","","","","","","","","","","","",""
"null","audio/beep-329314.mp3","null","audio-keyboard-response","261","2.1.0","642381","F=YES, J=NO","wntxvhojml","2","75","75","75","","","","","","","","","","","","","","","",""
"null","audio/pattern.wav","null","audio-keyboard-response","262","2.1.0","642930","F=YES, J=NO","wntxvhojml","2","75","75","75","","","","","","","","","","","","","","","",""
"910","
          <p id=""word"" style=""font-size: 40px;"">tug</p>
          <p style=""font-size: 16px;"">F = YES &nbsp;&nbsp;&nbsp; J = NO</p>
        ","f","html-keyboard-response","263","2.1.0","643842","F=YES, J=NO","wntxvhojml","2","75","75","75","","","","","","","","","tug","pattern","filler","filler","f","true","",""
"null","<p style=""font-size: 50px;"">+</p>","null","html-keyboard-response","264","2.1.0","644153","F=YES, J=NO","wntxvhojml","2","75","75","75","","","","","","","","","","","","","","","",""
"null","audio/beep-329314.mp3","null","audio-keyboard-response","265","2.1.0","645680","F=YES, J=NO","wntxvhojml","2","75","75","75","","","","","","","","","","","","","","","",""
"null","audio/desire.wav","null","audio-keyboard-response","266","2.1.0","646331","F=YES, J=NO","wntxvhojml","2","75","75","75","","","","","","","","","","","","","","","",""
"509","
          <p id=""word"" style=""font-size: 40px;"">open</p>
          <p style=""font-size: 16px;"">F = YES &nbsp;&nbsp;&nbsp; J = NO</p>
        ","f","html-keyboard-response","267","2.1.0","646841","F=YES, J=NO","wntxvhojml","2","75","75","75","","","","","","","","","open","desire","unrelated","experimental","f","true","",""
"null","<p style=""font-size: 50px;"">+</p>","null","html-keyboard-response","268","2.1.0","647154","F=YES, J=NO","wntxvhojml","2","75","75","75","","","","","","","","","","","","","","","",""
"null","audio/beep-329314.mp3","null","audio-keyboard-response","269","2.1.0","648681","F=YES, J=NO","wntxvhojml","2","75","75","75","","","","","","","","","","","","","","","",""
"null","audio/key1.wav","null","audio-keyboard-response","270","2.1.0","649071","F=YES, J=NO","wntxvhojml","2","75","75","75","","","","","","","","","","","","","","","",""
"592","
          <p id=""word"" style=""font-size: 40px;"">lose</p>
          <p style=""font-size: 16px;"">F = YES &nbsp;&nbsp;&nbsp; J = NO</p>
        ","f","html-keyboard-response","271","2.1.0","649664","F=YES, J=NO","wntxvhojml","2","75","75","75","","","","","","","","","lose","key1","literal","experimental","f","true","",""
"null","<p style=""font-size: 50px;"">+</p>","null","html-keyboard-response","272","2.1.0","649968","F=YES, J=NO","wntxvhojml","2","75","75","75","","","","","","","","","","","","","","","",""
"null","audio/beep-329314.mp3","null","audio-keyboard-response","273","2.1.0","651500","F=YES, J=NO","wntxvhojml","2","75","75","75","","","","","","","","","","","","","","","",""
"null","audio/camera1.wav","null","audio-keyboard-response","274","2.1.0","652130","F=YES, J=NO","wntxvhojml","2","75","75","75","","","","","","","","","","","","","","","",""
"817","
          <p id=""word"" style=""font-size: 40px;"">stir</p>
          <p style=""font-size: 16px;"">F = YES &nbsp;&nbsp;&nbsp; J = NO</p>
        ","f","html-keyboard-response","275","2.1.0","652950","F=YES, J=NO","wntxvhojml","2","75","75","75","","","","","","","","","stir","camera1","filler","filler","f","true","",""
"null","<p style=""font-size: 50px;"">+</p>","null","html-keyboard-response","276","2.1.0","653251","F=YES, J=NO","wntxvhojml","2","75","75","75","","","","","","","","","","","","","","","",""
"null","audio/beep-329314.mp3","null","audio-keyboard-response","277","2.1.0","654781","F=YES, J=NO","wntxvhojml","2","75","75","75","","","","","","","","","","","","","","","",""
"null","audio/foot1.wav","null","audio-keyboard-response","278","2.1.0","655370","F=YES, J=NO","wntxvhojml","2","75","75","75","","","","","","","","","","","","","","","",""
"521","
          <p id=""word"" style=""font-size: 40px;"">close</p>
          <p style=""font-size: 16px;"">F = YES &nbsp;&nbsp;&nbsp; J = NO</p>
        ","f","html-keyboard-response","279","2.1.0","655893","F=YES, J=NO","wntxvhojml","2","75","75","75","","","","","","","","","close","foot1","unrelated","experimental","f","true","",""
"null","<p style=""font-size: 50px;"">+</p>","null","html-keyboard-response","280","2.1.0","656203","F=YES, J=NO","wntxvhojml","2","75","75","75","","","","","","","","","","","","","","","",""
"null","audio/beep-329314.mp3","null","audio-keyboard-response","281","2.1.0","657741","F=YES, J=NO","wntxvhojml","2","75","75","75","","","","","","","","","","","","","","","",""
"null","audio/ego.wav","null","audio-keyboard-response","282","2.1.0","658331","F=YES, J=NO","wntxvhojml","2","75","75","75","","","","","","","","","","","","","","","",""
"550","
          <p id=""word"" style=""font-size: 40px;"">feed</p>
          <p style=""font-size: 16px;"">F = YES &nbsp;&nbsp;&nbsp; J = NO</p>
        ","f","html-keyboard-response","283","2.1.0","658882","F=YES, J=NO","wntxvhojml","2","75","75","75","","","","","","","","","feed","ego","metaphor","experimental","f","true","",""
"null","<p style=""font-size: 50px;"">+</p>","null","html-keyboard-response","284","2.1.0","659188","F=YES, J=NO","wntxvhojml","2","75","75","75","","","","","","","","","","","","","","","",""
"null","audio/beep-329314.mp3","null","audio-keyboard-response","285","2.1.0","660720","F=YES, J=NO","wntxvhojml","2","75","75","75","","","","","","","","","","","","","","","",""
"null","audio/tomato.wav","null","audio-keyboard-response","286","2.1.0","661430","F=YES, J=NO","wntxvhojml","2","75","75","75","","","","","","","","","","","","","","","",""
"889","
          <p id=""word"" style=""font-size: 40px;"">gladies</p>
          <p style=""font-size: 16px;"">F = YES &nbsp;&nbsp;&nbsp; J = NO</p>
        ","j","html-keyboard-response","287","2.1.0","662320","F=YES, J=NO","wntxvhojml","2","75","75","75","","","","","","","","","gladies","tomato","pseudoword","pseudoword","j","true","",""
"null","<p style=""font-size: 50px;"">+</p>","null","html-keyboard-response","288","2.1.0","662622","F=YES, J=NO","wntxvhojml","2","75","75","75","","","","","","","","","","","","","","","",""
"null","audio/beep-329314.mp3","null","audio-keyboard-response","289","2.1.0","664161","F=YES, J=NO","wntxvhojml","2","75","75","75","","","","","","","","","","","","","","","",""
"null","audio/winter.wav","null","audio-keyboard-response","290","2.1.0","664771","F=YES, J=NO","wntxvhojml","2","75","75","75","","","","","","","","","","","","","","","",""
"564","
          <p id=""word"" style=""font-size: 40px;"">expose</p>
          <p style=""font-size: 16px;"">F = YES &nbsp;&nbsp;&nbsp; J = NO</p>
        ","f","html-keyboard-response","291","2.1.0","665336","F=YES, J=NO","wntxvhojml","2","75","75","75","","","","","","","","","expose","winter","unrelated","experimental","f","true","",""
"null","<p style=""font-size: 50px;"">+</p>","null","html-keyboard-response","292","2.1.0","665641","F=YES, J=NO","wntxvhojml","2","75","75","75","","","","","","","","","","","","","","","",""
"null","audio/beep-329314.mp3","null","audio-keyboard-response","293","2.1.0","667180","F=YES, J=NO","wntxvhojml","2","75","75","75","","","","","","","","","","","","","","","",""
"null","audio/meal.wav","null","audio-keyboard-response","294","2.1.0","667671","F=YES, J=NO","wntxvhojml","2","75","75","75","","","","","","","","","","","","","","","",""
"592","
          <p id=""word"" style=""font-size: 40px;"">gallite</p>
          <p style=""font-size: 16px;"">F = YES &nbsp;&nbsp;&nbsp; J = NO</p>
        ","j","html-keyboard-response","295","2.1.0","668264","F=YES, J=NO","wntxvhojml","2","75","75","75","","","","","","","","","gallite","meal","pseudoword","pseudoword","j","true","",""
"66179","<p>Excellent! You have finished block 2 of 8.</p>
                     <p>Feel free to take a 30 second break.</p>
                     <p>Press any key when you're ready to continue.</p>"," ","html-keyboard-response","296","2.1.0","734456","F=YES, J=NO","wntxvhojml","2","75","75","75","","","","","","","","","","","","","","","",""
"2602","<p>Starting main block 3 of 8. Press any key to continue.</p>"," ","html-keyboard-response","297","2.1.0","737058","F=YES, J=NO","wntxvhojml","2","75","75","75","","","","","","","","","","","","","","","",""
"null","<p style=""font-size: 50px;"">+</p>","null","html-keyboard-response","298","2.1.0","737370","F=YES, J=NO","wntxvhojml","2","75","75","75","","","","","","","","","","","","","","","",""
"null","audio/beep-329314.mp3","null","audio-keyboard-response","299","2.1.0","738902","F=YES, J=NO","wntxvhojml","2","75","75","75","","","","","","","","","","","","","","","",""
"null","audio/sugar1.wav","null","audio-keyboard-response","300","2.1.0","739412","F=YES, J=NO","wntxvhojml","2","75","75","75","","","","","","","","","","","","","","","",""
"700","
          <p id=""word"" style=""font-size: 40px;"">glung</p>
          <p style=""font-size: 16px;"">F = YES &nbsp;&nbsp;&nbsp; J = NO</p>
        ","j","html-keyboard-response","301","2.1.0","740113","F=YES, J=NO","wntxvhojml","2","75","75","75","","","","","","","","","glung","sugar1","pseudoword","pseudoword","j","true","",""
"null","<p style=""font-size: 50px;"">+</p>","null","html-keyboard-response","302","2.1.0","740421","F=YES, J=NO","wntxvhojml","2","75","75","75","","","","","","","","","","","","","","","",""
"null","audio/beep-329314.mp3","null","audio-keyboard-response","303","2.1.0","741942","F=YES, J=NO","wntxvhojml","2","75","75","75","","","","","","","","","","","","","","","",""
"null","audio/gossip1.wav","null","audio-keyboard-response","304","2.1.0","742612","F=YES, J=NO","wntxvhojml","2","75","75","75","","","","","","","","","","","","","","","",""
"null","
          <p id=""word"" style=""font-size: 40px;"">camerish</p>
          <p style=""font-size: 16px;"">F = YES &nbsp;&nbsp;&nbsp; J = NO</p>
        ","null","html-keyboard-response","305","2.1.0","744119","F=YES, J=NO","wntxvhojml","2","75","75","75","","","","","","","","","camerish","gossip1","pseudoword","pseudoword","j","false","",""
"null","<p style=""font-size: 50px;"">+</p>","null","html-keyboard-response","306","2.1.0","744428","F=YES, J=NO","wntxvhojml","2","75","75","75","","","","","","","","","","","","","","","",""
"null","audio/beep-329314.mp3","null","audio-keyboard-response","307","2.1.0","745962","F=YES, J=NO","wntxvhojml","2","75","75","75","","","","","","","","","","","","","","","",""
"null","audio/plot1.wav","null","audio-keyboard-response","308","2.1.0","746552","F=YES, J=NO","wntxvhojml","2","75","75","75","","","","","","","","","","","","","","","",""
"517","
          <p id=""word"" style=""font-size: 40px;"">weave</p>
          <p style=""font-size: 16px;"">F = YES &nbsp;&nbsp;&nbsp; J = NO</p>
        ","f","html-keyboard-response","309","2.1.0","747070","F=YES, J=NO","wntxvhojml","2","75","75","75","","","","","","","","","weave","plot1","metaphor","experimental","f","true","",""
"null","<p style=""font-size: 50px;"">+</p>","null","html-keyboard-response","310","2.1.0","747382","F=YES, J=NO","wntxvhojml","2","75","75","75","","","","","","","","","","","","","","","",""
"null","audio/beep-329314.mp3","null","audio-keyboard-response","311","2.1.0","748923","F=YES, J=NO","wntxvhojml","2","75","75","75","","","","","","","","","","","","","","","",""
"null","audio/arm.wav","null","audio-keyboard-response","312","2.1.0","749513","F=YES, J=NO","wntxvhojml","2","75","75","75","","","","","","","","","","","","","","","",""
"537","
          <p id=""word"" style=""font-size: 40px;"">fold</p>
          <p style=""font-size: 16px;"">F = YES &nbsp;&nbsp;&nbsp; J = NO</p>
        ","f","html-keyboard-response","313","2.1.0","750051","F=YES, J=NO","wntxvhojml","2","75","75","75","","","","","","","","","fold","arm","filler","filler","f","true","",""
"null","<p style=""font-size: 50px;"">+</p>","null","html-keyboard-response","314","2.1.0","750363","F=YES, J=NO","wntxvhojml","2","75","75","75","","","","","","","","","","","","","","","",""
"null","audio/beep-329314.mp3","null","audio-keyboard-response","315","2.1.0","751903","F=YES, J=NO","wntxvhojml","2","75","75","75","","","","","","","","","","","","","","","",""
"null","audio/pizza1.wav","null","audio-keyboard-response","316","2.1.0","752513","F=YES, J=NO","wntxvhojml","2","75","75","75","","","","","","","","","","","","","","","",""
"589","
          <p id=""word"" style=""font-size: 40px;"">devour</p>
          <p style=""font-size: 16px;"">F = YES &nbsp;&nbsp;&nbsp; J = NO</p>
        ","f","html-keyboard-response","317","2.1.0","753104","F=YES, J=NO","wntxvhojml","2","75","75","75","","","","","","","","","devour","pizza1","literal","experimental","f","true","",""
"null","<p style=""font-size: 50px;"">+</p>","null","html-keyboard-response","318","2.1.0","753420","F=YES, J=NO","wntxvhojml","2","75","75","75","","","","","","","","","","","","","","","",""
"null","audio/beep-329314.mp3","null","audio-keyboard-response","319","2.1.0","754943","F=YES, J=NO","wntxvhojml","2","75","75","75","","","","","","","","","","","","","","","",""
"null","audio/road.wav","null","audio-keyboard-response","320","2.1.0","755373","F=YES, J=NO","wntxvhojml","2","75","75","75","","","","","","","","","","","","","","","",""
"899","
          <p id=""word"" style=""font-size: 40px;"">wappings</p>
          <p style=""font-size: 16px;"">F = YES &nbsp;&nbsp;&nbsp; J = NO</p>
        ","j","html-keyboard-response","321","2.1.0","756273","F=YES, J=NO","wntxvhojml","2","75","75","75","","","","","","","","","wappings","road","pseudoword","pseudoword","j","true","",""
"null","<p style=""font-size: 50px;"">+</p>","null","html-keyboard-response","322","2.1.0","756583","F=YES, J=NO","wntxvhojml","2","75","75","75","","","","","","","","","","","","","","","",""
"null","audio/beep-329314.mp3","null","audio-keyboard-response","323","2.1.0","758123","F=YES, J=NO","wntxvhojml","2","75","75","75","","","","","","","","","","","","","","","",""
"null","audio/seat.wav","null","audio-keyboard-response","324","2.1.0","758793","F=YES, J=NO","wntxvhojml","2","75","75","75","","","","","","","","","","","","","","","",""
"614","
          <p id=""word"" style=""font-size: 40px;"">digest</p>
          <p style=""font-size: 16px;"">F = YES &nbsp;&nbsp;&nbsp; J = NO</p>
        ","f","html-keyboard-response","325","2.1.0","759409","F=YES, J=NO","wntxvhojml","2","75","75","75","","","","","","","","","digest","seat","unrelated","experimental","f","true","",""
"null","<p style=""font-size: 50px;"">+</p>","null","html-keyboard-response","326","2.1.0","759710","F=YES, J=NO","wntxvhojml","2","75","75","75","","","","","","","","","","","","","","","",""
"null","audio/beep-329314.mp3","null","audio-keyboard-response","327","2.1.0","761243","F=YES, J=NO","wntxvhojml","2","75","75","75","","","","","","","","","","","","","","","",""
"null","audio/smirk1.wav","null","audio-keyboard-response","328","2.1.0","762012","F=YES, J=NO","wntxvhojml","2","75","75","75","","","","","","","","","","","","","","","",""
"730","
          <p id=""word"" style=""font-size: 40px;"">snopt</p>
          <p style=""font-size: 16px;"">F = YES &nbsp;&nbsp;&nbsp; J = NO</p>
        ","j","html-keyboard-response","329","2.1.0","762744","F=YES, J=NO","wntxvhojml","2","75","75","75","","","","","","","","","snopt","smirk1","pseudoword","pseudoword","j","true","",""
"null","<p style=""font-size: 50px;"">+</p>","null","html-keyboard-response","330","2.1.0","763055","F=YES, J=NO","wntxvhojml","2","75","75","75","","","","","","","","","","","","","","","",""
"null","audio/beep-329314.mp3","null","audio-keyboard-response","331","2.1.0","764582","F=YES, J=NO","wntxvhojml","2","75","75","75","","","","","","","","","","","","","","","",""
"null","audio/effort.wav","null","audio-keyboard-response","332","2.1.0","765212","F=YES, J=NO","wntxvhojml","2","75","75","75","","","","","","","","","","","","","","","",""
"664","
          <p id=""word"" style=""font-size: 40px;"">whonk</p>
          <p style=""font-size: 16px;"">F = YES &nbsp;&nbsp;&nbsp; J = NO</p>
        ","f","html-keyboard-response","333","2.1.0","765877","F=YES, J=NO","wntxvhojml","2","75","75","75","","","","","","","","","whonk","effort","pseudoword","pseudoword","j","false","",""
"null","<p style=""font-size: 50px;"">+</p>","null","html-keyboard-response","334","2.1.0","766182","F=YES, J=NO","wntxvhojml","2","75","75","75","","","","","","","","","","","","","","","",""
"null","audio/beep-329314.mp3","null","audio-keyboard-response","335","2.1.0","767723","F=YES, J=NO","wntxvhojml","2","75","75","75","","","","","","","","","","","","","","","",""
"null","audio/show.wav","null","audio-keyboard-response","336","2.1.0","768253","F=YES, J=NO","wntxvhojml","2","75","75","75","","","","","","","","","","","","","","","",""
"572","
          <p id=""word"" style=""font-size: 40px;"">hold</p>
          <p style=""font-size: 16px;"">F = YES &nbsp;&nbsp;&nbsp; J = NO</p>
        ","f","html-keyboard-response","337","2.1.0","768827","F=YES, J=NO","wntxvhojml","2","75","75","75","","","","","","","","","hold","show","metaphor","experimental","f","true","",""
"null","<p style=""font-size: 50px;"">+</p>","null","html-keyboard-response","338","2.1.0","769142","F=YES, J=NO","wntxvhojml","2","75","75","75","","","","","","","","","","","","","","","",""
"null","audio/beep-329314.mp3","null","audio-keyboard-response","339","2.1.0","770683","F=YES, J=NO","wntxvhojml","2","75","75","75","","","","","","","","","","","","","","","",""
"null","audio/pattern.wav","null","audio-keyboard-response","340","2.1.0","771172","F=YES, J=NO","wntxvhojml","2","75","75","75","","","","","","","","","","","","","","","",""
"503","
          <p id=""word"" style=""font-size: 40px;"">defeat</p>
          <p style=""font-size: 16px;"">F = YES &nbsp;&nbsp;&nbsp; J = NO</p>
        ","f","html-keyboard-response","341","2.1.0","771675","F=YES, J=NO","wntxvhojml","2","75","75","75","","","","","","","","","defeat","pattern","unrelated","experimental","f","true","",""
"null","<p style=""font-size: 50px;"">+</p>","null","html-keyboard-response","342","2.1.0","771977","F=YES, J=NO","wntxvhojml","2","75","75","75","","","","","","","","","","","","","","","",""
"null","audio/beep-329314.mp3","null","audio-keyboard-response","343","2.1.0","773502","F=YES, J=NO","wntxvhojml","2","75","75","75","","","","","","","","","","","","","","","",""
"null","audio/grass.wav","null","audio-keyboard-response","344","2.1.0","774193","F=YES, J=NO","wntxvhojml","2","75","75","75","","","","","","","","","","","","","","","",""
"618","
          <p id=""word"" style=""font-size: 40px;"">milames</p>
          <p style=""font-size: 16px;"">F = YES &nbsp;&nbsp;&nbsp; J = NO</p>
        ","j","html-keyboard-response","345","2.1.0","774813","F=YES, J=NO","wntxvhojml","2","75","75","75","","","","","","","","","milames","grass","pseudoword","pseudoword","j","true","",""
"null","<p style=""font-size: 50px;"">+</p>","null","html-keyboard-response","346","2.1.0","775115","F=YES, J=NO","wntxvhojml","2","75","75","75","","","","","","","","","","","","","","","",""
"null","audio/beep-329314.mp3","null","audio-keyboard-response","347","2.1.0","776643","F=YES, J=NO","wntxvhojml","2","75","75","75","","","","","","","","","","","","","","","",""
"null","audio/tomato.wav","null","audio-keyboard-response","348","2.1.0","777293","F=YES, J=NO","wntxvhojml","2","75","75","75","","","","","","","","","","","","","","","",""
"558","
          <p id=""word"" style=""font-size: 40px;"">grow</p>
          <p style=""font-size: 16px;"">F = YES &nbsp;&nbsp;&nbsp; J = NO</p>
        ","f","html-keyboard-response","349","2.1.0","777852","F=YES, J=NO","wntxvhojml","2","75","75","75","","","","","","","","","grow","tomato","literal","experimental","f","true","",""
"null","<p style=""font-size: 50px;"">+</p>","null","html-keyboard-response","350","2.1.0","778163","F=YES, J=NO","wntxvhojml","2","75","75","75","","","","","","","","","","","","","","","",""
"null","audio/beep-329314.mp3","null","audio-keyboard-response","351","2.1.0","779703","F=YES, J=NO","wntxvhojml","2","75","75","75","","","","","","","","","","","","","","","",""
"null","audio/brain.wav","null","audio-keyboard-response","352","2.1.0","780172","F=YES, J=NO","wntxvhojml","2","75","75","75","","","","","","","","","","","","","","","",""
"689","
          <p id=""word"" style=""font-size: 40px;"">flood</p>
          <p style=""font-size: 16px;"">F = YES &nbsp;&nbsp;&nbsp; J = NO</p>
        ","f","html-keyboard-response","353","2.1.0","780862","F=YES, J=NO","wntxvhojml","2","75","75","75","","","","","","","","","flood","brain","metaphor","experimental","f","true","",""
"null","<p style=""font-size: 50px;"">+</p>","null","html-keyboard-response","354","2.1.0","781178","F=YES, J=NO","wntxvhojml","2","75","75","75","","","","","","","","","","","","","","","",""
"null","audio/beep-329314.mp3","null","audio-keyboard-response","355","2.1.0","782703","F=YES, J=NO","wntxvhojml","2","75","75","75","","","","","","","","","","","","","","","",""
"null","audio/lion1.wav","null","audio-keyboard-response","356","2.1.0","783293","F=YES, J=NO","wntxvhojml","2","75","75","75","","","","","","","","","","","","","","","",""
"638","
          <p id=""word"" style=""font-size: 40px;"">wrestle</p>
          <p style=""font-size: 16px;"">F = YES &nbsp;&nbsp;&nbsp; J = NO</p>
        ","f","html-keyboard-response","357","2.1.0","783932","F=YES, J=NO","wntxvhojml","2","75","75","75","","","","","","","","","wrestle","lion1","literal","experimental","f","true","",""
"null","<p style=""font-size: 50px;"">+</p>","null","html-keyboard-response","358","2.1.0","784247","F=YES, J=NO","wntxvhojml","2","75","75","75","","","","","","","","","","","","","","","",""
"null","audio/beep-329314.mp3","null","audio-keyboard-response","359","2.1.0","785783","F=YES, J=NO","wntxvhojml","2","75","75","75","","","","","","","","","","","","","","","",""
"null","audio/hotel1.wav","null","audio-keyboard-response","360","2.1.0","786453","F=YES, J=NO","wntxvhojml","2","75","75","75","","","","","","","","","","","","","","","",""
"954","
          <p id=""word"" style=""font-size: 40px;"">flanter</p>
          <p style=""font-size: 16px;"">F = YES &nbsp;&nbsp;&nbsp; J = NO</p>
        ","j","html-keyboard-response","361","2.1.0","787408","F=YES, J=NO","wntxvhojml","2","75","75","75","","","","","","","","","flanter","hotel1","pseudoword","pseudoword","j","true","",""
"78864","<p>Excellent! You have finished block 3 of 8.</p>
                     <p>Feel free to take a 30 second break.</p>
                     <p>Press any key when you're ready to continue.</p>"," ","html-keyboard-response","362","2.1.0","866286","F=YES, J=NO","wntxvhojml","2","75","75","75","","","","","","","","","","","","","","","",""
"1278","<p>Starting main block 4 of 8. Press any key to continue.</p>"," ","html-keyboard-response","363","2.1.0","867564","F=YES, J=NO","wntxvhojml","2","75","75","75","","","","","","","","","","","","","","","",""
"null","<p style=""font-size: 50px;"">+</p>","null","html-keyboard-response","364","2.1.0","867866","F=YES, J=NO","wntxvhojml","2","75","75","75","","","","","","","","","","","","","","","",""
"null","audio/beep-329314.mp3","null","audio-keyboard-response","365","2.1.0","869400","F=YES, J=NO","wntxvhojml","2","75","75","75","","","","","","","","","","","","","","","",""
"null","audio/floor.wav","null","audio-keyboard-response","366","2.1.0","869968","F=YES, J=NO","wntxvhojml","2","75","75","75","","","","","","","","","","","","","","","",""
"643","
          <p id=""word"" style=""font-size: 40px;"">mop</p>
          <p style=""font-size: 16px;"">F = YES &nbsp;&nbsp;&nbsp; J = NO</p>
        ","f","html-keyboard-response","367","2.1.0","870612","F=YES, J=NO","wntxvhojml","2","75","75","75","","","","","","","","","mop","floor","filler","filler","f","true","",""
"null","<p style=""font-size: 50px;"">+</p>","null","html-keyboard-response","368","2.1.0","870914","F=YES, J=NO","wntxvhojml","2","75","75","75","","","","","","","","","","","","","","","",""
"null","audio/beep-329314.mp3","null","audio-keyboard-response","369","2.1.0","872440","F=YES, J=NO","wntxvhojml","2","75","75","75","","","","","","","","","","","","","","","",""
"null","audio/plot1.wav","null","audio-keyboard-response","370","2.1.0","872969","F=YES, J=NO","wntxvhojml","2","75","75","75","","","","","","","","","","","","","","","",""
"486","
          <p id=""word"" style=""font-size: 40px;"">glenter</p>
          <p style=""font-size: 16px;"">F = YES &nbsp;&nbsp;&nbsp; J = NO</p>
        ","f","html-keyboard-response","371","2.1.0","873457","F=YES, J=NO","wntxvhojml","2","75","75","75","","","","","","","","","glenter","plot1","pseudoword","pseudoword","j","false","",""
"null","<p style=""font-size: 50px;"">+</p>","null","html-keyboard-response","372","2.1.0","873765","F=YES, J=NO","wntxvhojml","2","75","75","75","","","","","","","","","","","","","","","",""
"null","audio/beep-329314.mp3","null","audio-keyboard-response","373","2.1.0","875299","F=YES, J=NO","wntxvhojml","2","75","75","75","","","","","","","","","","","","","","","",""
"null","audio/trout1.wav","null","audio-keyboard-response","374","2.1.0","875929","F=YES, J=NO","wntxvhojml","2","75","75","75","","","","","","","","","","","","","","","",""
"791","
          <p id=""word"" style=""font-size: 40px;"">spimt</p>
          <p style=""font-size: 16px;"">F = YES &nbsp;&nbsp;&nbsp; J = NO</p>
        ","j","html-keyboard-response","375","2.1.0","876722","F=YES, J=NO","wntxvhojml","2","75","75","75","","","","","","","","","spimt","trout1","pseudoword","pseudoword","j","true","",""
"null","<p style=""font-size: 50px;"">+</p>","null","html-keyboard-response","376","2.1.0","877031","F=YES, J=NO","wntxvhojml","2","75","75","75","","","","","","","","","","","","","","","",""
"null","audio/beep-329314.mp3","null","audio-keyboard-response","377","2.1.0","878560","F=YES, J=NO","wntxvhojml","2","75","75","75","","","","","","","","","","","","","","","",""
"null","audio/ankle1.wav","null","audio-keyboard-response","378","2.1.0","879149","F=YES, J=NO","wntxvhojml","2","75","75","75","","","","","","","","","","","","","","","",""
"1110","
          <p id=""word"" style=""font-size: 40px;"">switm</p>
          <p style=""font-size: 16px;"">F = YES &nbsp;&nbsp;&nbsp; J = NO</p>
        ","j","html-keyboard-response","379","2.1.0","880260","F=YES, J=NO","wntxvhojml","2","75","75","75","","","","","","","","","switm","ankle1","pseudoword","pseudoword","j","true","",""
"null","<p style=""font-size: 50px;"">+</p>","null","html-keyboard-response","380","2.1.0","880564","F=YES, J=NO","wntxvhojml","2","75","75","75","","","","","","","","","","","","","","","",""
"null","audio/beep-329314.mp3","null","audio-keyboard-response","381","2.1.0","882099","F=YES, J=NO","wntxvhojml","2","75","75","75","","","","","","","","","","","","","","","",""
"null","audio/beach1.wav","null","audio-keyboard-response","382","2.1.0","882669","F=YES, J=NO","wntxvhojml","2","75","75","75","","","","","","","","","","","","","","","",""
"717","
          <p id=""word"" style=""font-size: 40px;"">cut</p>
          <p style=""font-size: 16px;"">F = YES &nbsp;&nbsp;&nbsp; J = NO</p>
        ","f","html-keyboard-response","383","2.1.0","883387","F=YES, J=NO","wntxvhojml","2","75","75","75","","","","","","","","","cut","beach1","unrelated","experimental","f","true","",""
"null","<p style=""font-size: 50px;"">+</p>","null","html-keyboard-response","384","2.1.0","883694","F=YES, J=NO","wntxvhojml","2","75","75","75","","","","","","","","","","","","","","","",""
"null","audio/beep-329314.mp3","null","audio-keyboard-response","385","2.1.0","885219","F=YES, J=NO","wntxvhojml","2","75","75","75","","","","","","","","","","","","","","","",""
"null","audio/battle1.wav","null","audio-keyboard-response","386","2.1.0","885749","F=YES, J=NO","wntxvhojml","2","75","75","75","","","","","","","","","","","","","","","",""
"742","
          <p id=""word"" style=""font-size: 40px;"">fight</p>
          <p style=""font-size: 16px;"">F = YES &nbsp;&nbsp;&nbsp; J = NO</p>
        ","f","html-keyboard-response","387","2.1.0","886493","F=YES, J=NO","wntxvhojml","2","75","75","75","","","","","","","","","fight","battle1","literal","experimental","f","true","",""
"null","<p style=""font-size: 50px;"">+</p>","null","html-keyboard-response","388","2.1.0","886807","F=YES, J=NO","wntxvhojml","2","75","75","75","","","","","","","","","","","","","","","",""
"null","audio/beep-329314.mp3","null","audio-keyboard-response","389","2.1.0","888338","F=YES, J=NO","wntxvhojml","2","75","75","75","","","","","","","","","","","","","","","",""
"null","audio/cinema1.wav","null","audio-keyboard-response","390","2.1.0","888988","F=YES, J=NO","wntxvhojml","2","75","75","75","","","","","","","","","","","","","","","",""
"1018","
          <p id=""word"" style=""font-size: 40px;"">murple</p>
          <p style=""font-size: 16px;"">F = YES &nbsp;&nbsp;&nbsp; J = NO</p>
