"rt","stimulus","response","trial_type","trial_index","plugin_version","time_elapsed","response_mapping","subject_id","list_index","lextale_score","lextale_word_score","lextale_nonword_score","success","timeout","failed_images","failed_audio","failed_video","task","isWord","isDummy","target","prime","prime_type","stimulus_type","correct_response","correct","section","question_order"
"8411","
    <div style=""max-width: 800px; margin: auto; text-align: left;"">
      <h2>STANFORD UNIVERSITY</h2>
      <h3>Research Information Sheet</h3>
      <p><strong>Protocol Director:</strong> Robert Hawkins<br>
      <strong>Protocol Title:</strong> Communication and social cognition in natural audiovisual contexts<br>
      <strong>IRB#:</strong> 77226</p>

      <p><strong>DESCRIPTION:</strong> You are invited to participate in a research study about language and communication. The purpose of the research is to understand how you interact and communicate with other people in naturalistic settings as a fluent English speaker. This research will be conducted through the Prolific platform, including participants from the US, UK, and Canada. If you decide to participate in this research, you will play a communication game in a group with one or more partners.</p>

      <p><strong>TIME INVOLVEMENT:</strong> The task will last the amount of time advertised on Prolific. You are free to withdraw from the study at any time.</p>

      <p><strong>RISKS AND BENEFITS:</strong> You may become frustrated if your partner gets distracted, or experience discomfort if other participants in your group send text that is inappropriate for the task. We ask you to please be respectful of other participants you might be interacting with to mitigate these risks. You may also experience discomfort when being asked to discuss or challenge emotionally salient political beliefs. Study data will be stored securely, in compliance with Stanford University standards, minimizing the risk of confidentiality breach. This study advances our scientific understanding of how people communicate and collaborate in naturalistic settings. This study may lead to further insights about what can go wrong in teamwork, suggest potential interventions to overcome these barriers, and help to develop assistive technologies that collaborate with human partners. We cannot and do not guarantee or promise that you will receive any benefits from this study.</p>

      <p><strong>PAYMENTS:</strong> You will receive payment in the amount advertised on Prolific. If you do not complete this study, you will receive prorated payment based on the time that you have spent. Additionally, you may be eligible for bonus payments as described in the instructions.</p>

      <p><strong>PARTICIPANT’S RIGHTS:</strong> If you have read this form and have decided to participate in this project, please understand your participation is voluntary and you have the right to withdraw your consent or discontinue participation at any time without penalty or loss of benefits to which you are otherwise entitled. The alternative is not to participate. You have the right to refuse to answer particular questions. The results of this research study may be presented at scientific or professional meetings or published in scientific journals. Your individual privacy will be maintained in all published and written data resulting from the study. In accordance with scientific norms, the data from this study may be used or shared with other researchers for future research (after removing personally identifying information) without additional consent from you.</p>

      <p><strong>CONTACT INFORMATION:</strong><br>
      Questions: If you have any questions, concerns or complaints about this research, its procedures, risks and benefits, contact the Protocol Director, Robert Hawkins (<a href=""mailto:rdhawkins@stanford.edu"">rdhawkins@stanford.edu</a>, 217-549-6923).<br>
      Independent Contact: If you are not satisfied with how this study is being conducted, or if you have any concerns, complaints, or general questions about the research or your rights as a participant, please contact the Stanford Institutional Review Board (IRB) to speak to someone independent of the research team at 650-723-2480 or toll free at 1-866-680-2906, or email at <a href=""mailto:irbnon-med@stanford.edu"">irbnon-med@stanford.edu</a>. You can also write to the Stanford IRB, Stanford University, 1705 El Camino Real, Palo Alto, CA 94306.</p>

      <p><strong>Please save or print a copy of this page for your records.</strong></p>
      <p>If you agree to participate in this research, click ""Continue"" below.</p>
    </div>
  ","0","html-button-response","0","2.1.0","8424","J=YES, F=NO","wxbv4k2zrs","2","76","78","75","","","","","","","","","","","","","","","",""
"10170","
    <div style=""max-width: 800px; margin: auto; text-align: left;"">
      <h2>Welcome!</h2>
      <p>Thank you for participating in this study. The experiment consists of three parts:</p>
      <ol>
        <li>An English vocabulary test</li>
        <li>A main task in which you will hear and see words, and decide whether the written word is a real English word</li>
        <li>A brief survey about your background</li>
      </ol>
      <p>Each part will be introduced before it begins.</p>
      <p>Please make sure you are in a quiet environment and can hear audio clearly for the final task.</p>
      <p style=""margin-top: 2em;"">Press any key to begin.</p>
    </div>
  ","g","html-keyboard-response","1","2.1.0","18596","J=YES, F=NO","wxbv4k2zrs","2","76","78","75","","","","","","","","","","","","","","","",""
"","","","preload","2","2.1.0","19248","J=YES, F=NO","wxbv4k2zrs","2","76","78","75","true","false","[]","[]","[]","","","","","","","","","","",""
"7504","
    <div style=""max-width: 800px; margin: auto; text-align: left;"">
      <h2>Part 1: Vocabulary Test</h2>
      <p>You will now complete the first part of the study: a short English vocabulary test.</p>
      <p>This test is called <strong>LexTALE</strong> and helps us get a general sense of your English proficiency.</p>
      <p style=""margin-top: 2em;"">Press any key to continue.</p>
    </div>
  ","g","html-keyboard-response","3","2.1.0","26753","J=YES, F=NO","wxbv4k2zrs","2","76","78","75","","","","","","","","","","","","","","","",""
"6660","
    <div style=""max-width: 800px; margin: auto; text-align: left;"">
      <h2>LexTALE Vocabulary Test</h2>
      <p>In this test, you will see a series of letter strings—one at a time.</p>
      <p>Your task is to decide whether each string is a real English word.</p>
      <p><strong>Key responses:</strong></p>
      <ul>
        <li><strong>J</strong> = YES (real English word)</li>
        <li><strong>F</strong> = NO (not a real English word)</li>
      </ul>
      <p>There is no time limit, but please try to be accurate.</p>
      <p style=""margin-top: 2em;"">Press any key to begin.</p>
    </div>
  "," ","html-keyboard-response","4","2.1.0","33414","J=YES, F=NO","wxbv4k2zrs","2","76","78","75","","","","","","","","","","","","","","","",""
"2153","
  <p style=""font-size: 40px;"">platery</p>
  <p style=""font-size: 16px;"">J = YES &nbsp;&nbsp;&nbsp; F = NO</p>
","j","html-keyboard-response","5","2.1.0","35568","J=YES, F=NO","wxbv4k2zrs","2","76","78","75","","","","","","lextale","false","true","","","","","","","",""
"812","
  <p style=""font-size: 40px;"">denial</p>
  <p style=""font-size: 16px;"">J = YES &nbsp;&nbsp;&nbsp; F = NO</p>
","j","html-keyboard-response","6","2.1.0","36381","J=YES, F=NO","wxbv4k2zrs","2","76","78","75","","","","","","lextale","true","true","","","","","","","",""
"984","
  <p style=""font-size: 40px;"">marrit</p>
  <p style=""font-size: 16px;"">J = YES &nbsp;&nbsp;&nbsp; F = NO</p>
","f","html-keyboard-response","7","2.1.0","37365","J=YES, F=NO","wxbv4k2zrs","2","76","78","75","","","","","","lextale","false","true","","","","","","","",""
"3583","
  <p style=""font-size: 40px;"">bottle</p>
  <p style=""font-size: 16px;"">J = YES &nbsp;&nbsp;&nbsp; F = NO</p>
","j","html-keyboard-response","8","2.1.0","40949","J=YES, F=NO","wxbv4k2zrs","2","76","78","75","","","","","","lextale","true","false","","","","","","","",""
"1421","
  <p style=""font-size: 40px;"">birst</p>
  <p style=""font-size: 16px;"">J = YES &nbsp;&nbsp;&nbsp; F = NO</p>
","f","html-keyboard-response","9","2.1.0","42370","J=YES, F=NO","wxbv4k2zrs","2","76","78","75","","","","","","lextale","false","false","","","","","","","",""
"1064","
  <p style=""font-size: 40px;"">envy</p>
  <p style=""font-size: 16px;"">J = YES &nbsp;&nbsp;&nbsp; F = NO</p>
","j","html-keyboard-response","10","2.1.0","43435","J=YES, F=NO","wxbv4k2zrs","2","76","78","75","","","","","","lextale","true","false","","","","","","","",""
"2226","
  <p style=""font-size: 40px;"">brang</p>
  <p style=""font-size: 16px;"">J = YES &nbsp;&nbsp;&nbsp; F = NO</p>
","f","html-keyboard-response","11","2.1.0","45662","J=YES, F=NO","wxbv4k2zrs","2","76","78","75","","","","","","lextale","false","false","","","","","","","",""
"1006","
  <p style=""font-size: 40px;"">huge</p>
  <p style=""font-size: 16px;"">J = YES &nbsp;&nbsp;&nbsp; F = NO</p>
","j","html-keyboard-response","12","2.1.0","46668","J=YES, F=NO","wxbv4k2zrs","2","76","78","75","","","","","","lextale","true","false","","","","","","","",""
"1110","
  <p style=""font-size: 40px;"">plove</p>
  <p style=""font-size: 16px;"">J = YES &nbsp;&nbsp;&nbsp; F = NO</p>
","f","html-keyboard-response","13","2.1.0","47778","J=YES, F=NO","wxbv4k2zrs","2","76","78","75","","","","","","lextale","false","false","","","","","","","",""
"724","
  <p style=""font-size: 40px;"">border</p>
  <p style=""font-size: 16px;"">J = YES &nbsp;&nbsp;&nbsp; F = NO</p>
","j","html-keyboard-response","14","2.1.0","48503","J=YES, F=NO","wxbv4k2zrs","2","76","78","75","","","","","","lextale","true","false","","","","","","","",""
"755","
  <p style=""font-size: 40px;"">flimsy</p>
  <p style=""font-size: 16px;"">J = YES &nbsp;&nbsp;&nbsp; F = NO</p>
","j","html-keyboard-response","15","2.1.0","49259","J=YES, F=NO","wxbv4k2zrs","2","76","78","75","","","","","","lextale","true","false","","","","","","","",""
"794","
  <p style=""font-size: 40px;"">drain</p>
  <p style=""font-size: 16px;"">J = YES &nbsp;&nbsp;&nbsp; F = NO</p>
","f","html-keyboard-response","16","2.1.0","50054","J=YES, F=NO","wxbv4k2zrs","2","76","78","75","","","","","","lextale","true","false","","","","","","","",""
"3950","
  <p style=""font-size: 40px;"">twindle</p>
  <p style=""font-size: 16px;"">J = YES &nbsp;&nbsp;&nbsp; F = NO</p>
","j","html-keyboard-response","17","2.1.0","54005","J=YES, F=NO","wxbv4k2zrs","2","76","78","75","","","","","","lextale","false","false","","","","","","","",""
"995","
  <p style=""font-size: 40px;"">propose</p>
  <p style=""font-size: 16px;"">J = YES &nbsp;&nbsp;&nbsp; F = NO</p>
","j","html-keyboard-response","18","2.1.0","55000","J=YES, F=NO","wxbv4k2zrs","2","76","78","75","","","","","","lextale","true","false","","","","","","","",""
"966","
  <p style=""font-size: 40px;"">forlay</p>
  <p style=""font-size: 16px;"">J = YES &nbsp;&nbsp;&nbsp; F = NO</p>
","f","html-keyboard-response","19","2.1.0","55967","J=YES, F=NO","wxbv4k2zrs","2","76","78","75","","","","","","lextale","false","false","","","","","","","",""
"1008","
  <p style=""font-size: 40px;"">tenant</p>
  <p style=""font-size: 16px;"">J = YES &nbsp;&nbsp;&nbsp; F = NO</p>
","j","html-keyboard-response","20","2.1.0","56975","J=YES, F=NO","wxbv4k2zrs","2","76","78","75","","","","","","lextale","true","false","","","","","","","",""
"988","
  <p style=""font-size: 40px;"">strain</p>
  <p style=""font-size: 16px;"">J = YES &nbsp;&nbsp;&nbsp; F = NO</p>
","j","html-keyboard-response","21","2.1.0","57963","J=YES, F=NO","wxbv4k2zrs","2","76","78","75","","","","","","lextale","true","false","","","","","","","",""
"903","
  <p style=""font-size: 40px;"">holster</p>
  <p style=""font-size: 16px;"">J = YES &nbsp;&nbsp;&nbsp; F = NO</p>
","j","html-keyboard-response","22","2.1.0","58867","J=YES, F=NO","wxbv4k2zrs","2","76","78","75","","","","","","lextale","true","false","","","","","","","",""
"997","
  <p style=""font-size: 40px;"">hinder</p>
  <p style=""font-size: 16px;"">J = YES &nbsp;&nbsp;&nbsp; F = NO</p>
","j","html-keyboard-response","23","2.1.0","59865","J=YES, F=NO","wxbv4k2zrs","2","76","78","75","","","","","","lextale","true","false","","","","","","","",""
"1011","
  <p style=""font-size: 40px;"">swindle</p>
  <p style=""font-size: 16px;"">J = YES &nbsp;&nbsp;&nbsp; F = NO</p>
","f","html-keyboard-response","24","2.1.0","60877","J=YES, F=NO","wxbv4k2zrs","2","76","78","75","","","","","","lextale","true","false","","","","","","","",""
"1050","
  <p style=""font-size: 40px;"">nuder</p>
  <p style=""font-size: 16px;"">J = YES &nbsp;&nbsp;&nbsp; F = NO</p>
","f","html-keyboard-response","25","2.1.0","61928","J=YES, F=NO","wxbv4k2zrs","2","76","78","75","","","","","","lextale","false","false","","","","","","","",""
"766","
  <p style=""font-size: 40px;"">pillow</p>
  <p style=""font-size: 16px;"">J = YES &nbsp;&nbsp;&nbsp; F = NO</p>
","j","html-keyboard-response","26","2.1.0","62695","J=YES, F=NO","wxbv4k2zrs","2","76","78","75","","","","","","lextale","true","false","","","","","","","",""
"2731","
  <p style=""font-size: 40px;"">shumble</p>
  <p style=""font-size: 16px;"">J = YES &nbsp;&nbsp;&nbsp; F = NO</p>
","f","html-keyboard-response","27","2.1.0","65427","J=YES, F=NO","wxbv4k2zrs","2","76","78","75","","","","","","lextale","false","false","","","","","","","",""
"923","
  <p style=""font-size: 40px;"">thirst</p>
  <p style=""font-size: 16px;"">J = YES &nbsp;&nbsp;&nbsp; F = NO</p>
","j","html-keyboard-response","28","2.1.0","66351","J=YES, F=NO","wxbv4k2zrs","2","76","78","75","","","","","","lextale","true","false","","","","","","","",""
"1951","
  <p style=""font-size: 40px;"">unsail</p>
  <p style=""font-size: 16px;"">J = YES &nbsp;&nbsp;&nbsp; F = NO</p>
","f","html-keyboard-response","29","2.1.0","68302","J=YES, F=NO","wxbv4k2zrs","2","76","78","75","","","","","","lextale","false","false","","","","","","","",""
"1445","
  <p style=""font-size: 40px;"">rifle</p>
  <p style=""font-size: 16px;"">J = YES &nbsp;&nbsp;&nbsp; F = NO</p>
","j","html-keyboard-response","30","2.1.0","69748","J=YES, F=NO","wxbv4k2zrs","2","76","78","75","","","","","","lextale","true","false","","","","","","","",""
"987","
  <p style=""font-size: 40px;"">mush</p>
  <p style=""font-size: 16px;"">J = YES &nbsp;&nbsp;&nbsp; F = NO</p>
","j","html-keyboard-response","31","2.1.0","70736","J=YES, F=NO","wxbv4k2zrs","2","76","78","75","","","","","","lextale","false","false","","","","","","","",""
"945","
  <p style=""font-size: 40px;"">drench</p>
  <p style=""font-size: 16px;"">J = YES &nbsp;&nbsp;&nbsp; F = NO</p>
","j","html-keyboard-response","32","2.1.0","71682","J=YES, F=NO","wxbv4k2zrs","2","76","78","75","","","","","","lextale","true","false","","","","","","","",""
"1802","
  <p style=""font-size: 40px;"">snirt</p>
  <p style=""font-size: 16px;"">J = YES &nbsp;&nbsp;&nbsp; F = NO</p>
","f","html-keyboard-response","33","2.1.0","73485","J=YES, F=NO","wxbv4k2zrs","2","76","78","75","","","","","","lextale","false","false","","","","","","","",""
"711","
  <p style=""font-size: 40px;"">bitter</p>
  <p style=""font-size: 16px;"">J = YES &nbsp;&nbsp;&nbsp; F = NO</p>
","j","html-keyboard-response","34","2.1.0","74196","J=YES, F=NO","wxbv4k2zrs","2","76","78","75","","","","","","lextale","true","false","","","","","","","",""
"2878","
  <p style=""font-size: 40px;"">pliff</p>
  <p style=""font-size: 16px;"">J = YES &nbsp;&nbsp;&nbsp; F = NO</p>
","j","html-keyboard-response","35","2.1.0","77075","J=YES, F=NO","wxbv4k2zrs","2","76","78","75","","","","","","lextale","false","false","","","","","","","",""
"809","
  <p style=""font-size: 40px;"">tablet</p>
  <p style=""font-size: 16px;"">J = YES &nbsp;&nbsp;&nbsp; F = NO</p>
","j","html-keyboard-response","36","2.1.0","77884","J=YES, F=NO","wxbv4k2zrs","2","76","78","75","","","","","","lextale","true","false","","","","","","","",""
"746","
  <p style=""font-size: 40px;"">glimmer</p>
  <p style=""font-size: 16px;"">J = YES &nbsp;&nbsp;&nbsp; F = NO</p>
","j","html-keyboard-response","37","2.1.0","78630","J=YES, F=NO","wxbv4k2zrs","2","76","78","75","","","","","","lextale","true","false","","","","","","","",""
"952","
  <p style=""font-size: 40px;"">slink</p>
  <p style=""font-size: 16px;"">J = YES &nbsp;&nbsp;&nbsp; F = NO</p>
","j","html-keyboard-response","38","2.1.0","79583","J=YES, F=NO","wxbv4k2zrs","2","76","78","75","","","","","","lextale","true","false","","","","","","","",""
"731","
  <p style=""font-size: 40px;"">clever</p>
  <p style=""font-size: 16px;"">J = YES &nbsp;&nbsp;&nbsp; F = NO</p>
","j","html-keyboard-response","39","2.1.0","80315","J=YES, F=NO","wxbv4k2zrs","2","76","78","75","","","","","","lextale","true","false","","","","","","","",""
"869","
  <p style=""font-size: 40px;"">grum</p>
  <p style=""font-size: 16px;"">J = YES &nbsp;&nbsp;&nbsp; F = NO</p>
","f","html-keyboard-response","40","2.1.0","81184","J=YES, F=NO","wxbv4k2zrs","2","76","78","75","","","","","","lextale","false","false","","","","","","","",""
"878","
  <p style=""font-size: 40px;"">string</p>
  <p style=""font-size: 16px;"">J = YES &nbsp;&nbsp;&nbsp; F = NO</p>
","j","html-keyboard-response","41","2.1.0","82063","J=YES, F=NO","wxbv4k2zrs","2","76","78","75","","","","","","lextale","true","false","","","","","","","",""
"1091","
  <p style=""font-size: 40px;"">plim</p>
  <p style=""font-size: 16px;"">J = YES &nbsp;&nbsp;&nbsp; F = NO</p>
","f","html-keyboard-response","42","2.1.0","83155","J=YES, F=NO","wxbv4k2zrs","2","76","78","75","","","","","","lextale","false","false","","","","","","","",""
"785","
  <p style=""font-size: 40px;"">cable</p>
  <p style=""font-size: 16px;"">J = YES &nbsp;&nbsp;&nbsp; F = NO</p>
","j","html-keyboard-response","43","2.1.0","83940","J=YES, F=NO","wxbv4k2zrs","2","76","78","75","","","","","","lextale","true","false","","","","","","","",""
"892","
  <p style=""font-size: 40px;"">shrivel</p>
  <p style=""font-size: 16px;"">J = YES &nbsp;&nbsp;&nbsp; F = NO</p>
","j","html-keyboard-response","44","2.1.0","84833","J=YES, F=NO","wxbv4k2zrs","2","76","78","75","","","","","","lextale","true","false","","","","","","","",""
"1354","
  <p style=""font-size: 40px;"">tarnish</p>
  <p style=""font-size: 16px;"">J = YES &nbsp;&nbsp;&nbsp; F = NO</p>
","j","html-keyboard-response","45","2.1.0","86188","J=YES, F=NO","wxbv4k2zrs","2","76","78","75","","","","","","lextale","true","false","","","","","","","",""
"2017","
  <p style=""font-size: 40px;"">blim</p>
  <p style=""font-size: 16px;"">J = YES &nbsp;&nbsp;&nbsp; F = NO</p>
","f","html-keyboard-response","46","2.1.0","88206","J=YES, F=NO","wxbv4k2zrs","2","76","78","75","","","","","","lextale","false","false","","","","","","","",""
"1089","
  <p style=""font-size: 40px;"">stifle</p>
  <p style=""font-size: 16px;"">J = YES &nbsp;&nbsp;&nbsp; F = NO</p>
","j","html-keyboard-response","47","2.1.0","89295","J=YES, F=NO","wxbv4k2zrs","2","76","78","75","","","","","","lextale","true","false","","","","","","","",""
"2058","
  <p style=""font-size: 40px;"">bint</p>
  <p style=""font-size: 16px;"">J = YES &nbsp;&nbsp;&nbsp; F = NO</p>
","f","html-keyboard-response","48","2.1.0","91354","J=YES, F=NO","wxbv4k2zrs","2","76","78","75","","","","","","lextale","false","false","","","","","","","",""
"1671","
  <p style=""font-size: 40px;"">purple</p>
  <p style=""font-size: 16px;"">J = YES &nbsp;&nbsp;&nbsp; F = NO</p>
","j","html-keyboard-response","49","2.1.0","93025","J=YES, F=NO","wxbv4k2zrs","2","76","78","75","","","","","","lextale","true","false","","","","","","","",""
"1155","
  <p style=""font-size: 40px;"">wriggle</p>
  <p style=""font-size: 16px;"">J = YES &nbsp;&nbsp;&nbsp; F = NO</p>
","j","html-keyboard-response","50","2.1.0","94181","J=YES, F=NO","wxbv4k2zrs","2","76","78","75","","","","","","lextale","true","false","","","","","","","",""
"857","
  <p style=""font-size: 40px;"">mangle</p>
  <p style=""font-size: 16px;"">J = YES &nbsp;&nbsp;&nbsp; F = NO</p>
","j","html-keyboard-response","51","2.1.0","95039","J=YES, F=NO","wxbv4k2zrs","2","76","78","75","","","","","","lextale","true","false","","","","","","","",""
"900","
  <p style=""font-size: 40px;"">shramp</p>
  <p style=""font-size: 16px;"">J = YES &nbsp;&nbsp;&nbsp; F = NO</p>
","f","html-keyboard-response","52","2.1.0","95939","J=YES, F=NO","wxbv4k2zrs","2","76","78","75","","","","","","lextale","false","false","","","","","","","",""
"1155","
  <p style=""font-size: 40px;"">flirt</p>
  <p style=""font-size: 16px;"">J = YES &nbsp;&nbsp;&nbsp; F = NO</p>
","f","html-keyboard-response","53","2.1.0","97095","J=YES, F=NO","wxbv4k2zrs","2","76","78","75","","","","","","lextale","true","false","","","","","","","",""
"1113","
  <p style=""font-size: 40px;"">frip</p>
  <p style=""font-size: 16px;"">J = YES &nbsp;&nbsp;&nbsp; F = NO</p>
","f","html-keyboard-response","54","2.1.0","98208","J=YES, F=NO","wxbv4k2zrs","2","76","78","75","","","","","","lextale","false","false","","","","","","","",""
"1230","
  <p style=""font-size: 40px;"">tangle</p>
  <p style=""font-size: 16px;"">J = YES &nbsp;&nbsp;&nbsp; F = NO</p>
","j","html-keyboard-response","55","2.1.0","99438","J=YES, F=NO","wxbv4k2zrs","2","76","78","75","","","","","","lextale","true","false","","","","","","","",""
"860","
  <p style=""font-size: 40px;"">crumble</p>
  <p style=""font-size: 16px;"">J = YES &nbsp;&nbsp;&nbsp; F = NO</p>
","j","html-keyboard-response","56","2.1.0","100299","J=YES, F=NO","wxbv4k2zrs","2","76","78","75","","","","","","lextale","true","false","","","","","","","",""
"756","
  <p style=""font-size: 40px;"">wrinkle</p>
  <p style=""font-size: 16px;"">J = YES &nbsp;&nbsp;&nbsp; F = NO</p>
","j","html-keyboard-response","57","2.1.0","101056","J=YES, F=NO","wxbv4k2zrs","2","76","78","75","","","","","","lextale","true","false","","","","","","","",""
"3369","
  <p style=""font-size: 40px;"">slumb</p>
  <p style=""font-size: 16px;"">J = YES &nbsp;&nbsp;&nbsp; F = NO</p>
","f","html-keyboard-response","58","2.1.0","104425","J=YES, F=NO","wxbv4k2zrs","2","76","78","75","","","","","","lextale","false","false","","","","","","","",""
"974","
  <p style=""font-size: 40px;"">jungle</p>
  <p style=""font-size: 16px;"">J = YES &nbsp;&nbsp;&nbsp; F = NO</p>
","j","html-keyboard-response","59","2.1.0","105399","J=YES, F=NO","wxbv4k2zrs","2","76","78","75","","","","","","lextale","true","false","","","","","","","",""
"1583","
  <p style=""font-size: 40px;"">frolick</p>
  <p style=""font-size: 16px;"">J = YES &nbsp;&nbsp;&nbsp; F = NO</p>
","j","html-keyboard-response","60","2.1.0","106982","J=YES, F=NO","wxbv4k2zrs","2","76","78","75","","","","","","lextale","false","false","","","","","","","",""
"3322","
      <h2>LexTALE Test Completed</h2>
      <p>Your LexTALE vocabulary score is: <strong>76%</strong></p>
      <p>Press any key to continue.</p>
    ","f","html-keyboard-response","61","2.1.0","110305","J=YES, F=NO","wxbv4k2zrs","2","76","78","75","","","","","","","","","","","","","","","",""
"35992","
    <div style=""max-width: 800px; margin: auto; text-align: left;"">
      <h2>Break Time</h2>
      <p>You have completed the first part of the study.</p>
      <p>You may take a short <strong>30-second break</strong> before continuing.</p>
      <p>When you’re ready, press any key to continue to the final task.</p>
    </div>
  ","h","html-keyboard-response","62","2.1.0","146298","J=YES, F=NO","wxbv4k2zrs","2","76","78","75","","","","","","","","","","","","","","","",""
"16401","
    <div style=""max-width: 800px; margin: auto; text-align: left;"">
      <h2>Part 2: Lexical Decision Task</h2>
      <p>You will now begin the second part of the study.</p>
      <p>Each trial will follow this sequence:</p>
      <ul>
        <li>A fixation cross (+) appears at the center of the screen.</li>
        <li>You will hear a short beep followed by a spoken word.</li>
        <li>A written word will appear briefly on the screen.</li>
      </ul>
      <p>Your task is to judge whether the <strong>written word</strong> is a real English word.</p>
      <p style=""margin-top: 1em;""><strong>Key responses:</strong></p>
      <ul>
        <li><strong>J</strong> = YES (real English word)</li>
        <li><strong>F</strong> = NO (not a real English word)</li>
      </ul>
      <p>Please respond as quickly and accurately as you can.</p>
      <p style=""margin-top: 2em;"">Press any key to continue.</p>
    </div>
  "," ","html-keyboard-response","63","2.1.0","162699","J=YES, F=NO","wxbv4k2zrs","2","76","78","75","","","","","","","","","","","","","","","",""
"1200","
    <div style=""max-width: 800px; margin: auto; text-align: left;"">
      <h2>Before You Begin</h2>
      <p>Make sure your sound is turned on.</p>
      <p>You will hear audio during each trial, but your decision should be based only on the <strong>written word</strong> you see on the screen.</p>
      <p><strong>Reminder:</strong></p>
      <ul>
        <li><strong>J</strong> = YES (real English word)</li>
        <li><strong>F</strong> = NO (not a real English word)</li>
      </ul>
      <p style=""margin-top: 2em;"">Press any key when you are ready to begin.</p>
    </div>
  "," ","html-keyboard-response","64","2.1.0","163900","J=YES, F=NO","wxbv4k2zrs","2","76","78","75","","","","","","","","","","","","","","","",""
"2503","
    <div style=""max-width: 800px; margin: auto; text-align: left;"">
      <h2>Part 2: Practice Trials</h2>
      <p>You will now complete a few <strong>practice trials</strong> to get familiar with the task.</p>
      <p>These trials are <strong>not scored</strong> and are only to help you get used to the format.</p>
      <p style=""margin-top: 2em;"">Press any key to begin.</p>
    </div>
  "," ","html-keyboard-response","65","2.1.0","166403","J=YES, F=NO","wxbv4k2zrs","2","76","78","75","","","","","","","","","","","","","","","",""
"2704","<p>Starting practice block 1 of 2. Press any key to continue.</p>"," ","html-keyboard-response","66","2.1.0","169108","J=YES, F=NO","wxbv4k2zrs","2","76","78","75","","","","","","","","","","","","","","","",""
"null","<p style=""font-size: 50px;"">+</p>","null","html-keyboard-response","67","2.1.0","169423","J=YES, F=NO","wxbv4k2zrs","2","76","78","75","","","","","","","","","","","","","","","",""
"null","audio/beep-329314.mp3","null","audio-keyboard-response","68","2.1.0","170986","J=YES, F=NO","wxbv4k2zrs","2","76","78","75","","","","","","","","","","","","","","","",""
"null","audio/baby.wav","null","audio-keyboard-response","69","2.1.0","171596","J=YES, F=NO","wxbv4k2zrs","2","76","78","75","","","","","","","","","","","","","","","",""
"null","
          <p id=""word"" style=""font-size: 40px;"">lift</p>
          <p style=""font-size: 16px;"">J = YES &nbsp;&nbsp;&nbsp; F = NO</p>
        ","null","html-keyboard-response","70","2.1.0","173100","J=YES, F=NO","wxbv4k2zrs","2","76","78","75","","","","","","","","","lift","baby","filler","filler","j","false","",""
"null","<p style=""font-size: 50px;"">+</p>","null","html-keyboard-response","71","2.1.0","173415","J=YES, F=NO","wxbv4k2zrs","2","76","78","75","","","","","","","","","","","","","","","",""
"null","audio/beep-329314.mp3","null","audio-keyboard-response","72","2.1.0","174946","J=YES, F=NO","wxbv4k2zrs","2","76","78","75","","","","","","","","","","","","","","","",""
"null","audio/key1.wav","null","audio-keyboard-response","73","2.1.0","175336","J=YES, F=NO","wxbv4k2zrs","2","76","78","75","","","","","","","","","","","","","","","",""
"993","
          <p id=""word"" style=""font-size: 40px;"">sminsh</p>
          <p style=""font-size: 16px;"">J = YES &nbsp;&nbsp;&nbsp; F = NO</p>
        ","j","html-keyboard-response","74","2.1.0","176330","J=YES, F=NO","wxbv4k2zrs","2","76","78","75","","","","","","","","","sminsh","key1","pseudoword","pseudoword","f","false","",""
"null","<p style=""font-size: 50px;"">+</p>","null","html-keyboard-response","75","2.1.0","176631","J=YES, F=NO","wxbv4k2zrs","2","76","78","75","","","","","","","","","","","","","","","",""
"null","audio/beep-329314.mp3","null","audio-keyboard-response","76","2.1.0","178167","J=YES, F=NO","wxbv4k2zrs","2","76","78","75","","","","","","","","","","","","","","","",""
"null","audio/birth1.wav","null","audio-keyboard-response","77","2.1.0","178716","J=YES, F=NO","wxbv4k2zrs","2","76","78","75","","","","","","","","","","","","","","","",""
"1013","
          <p id=""word"" style=""font-size: 40px;"">peel</p>
          <p style=""font-size: 16px;"">J = YES &nbsp;&nbsp;&nbsp; F = NO</p>
        ","j","html-keyboard-response","78","2.1.0","179730","J=YES, F=NO","wxbv4k2zrs","2","76","78","75","","","","","","","","","peel","birth1","filler","filler","j","true","",""
"null","<p style=""font-size: 50px;"">+</p>","null","html-keyboard-response","79","2.1.0","180038","J=YES, F=NO","wxbv4k2zrs","2","76","78","75","","","","","","","","","","","","","","","",""
"null","audio/beep-329314.mp3","null","audio-keyboard-response","80","2.1.0","181566","J=YES, F=NO","wxbv4k2zrs","2","76","78","75","","","","","","","","","","","","","","","",""
"null","audio/van1.wav","null","audio-keyboard-response","81","2.1.0","182076","J=YES, F=NO","wxbv4k2zrs","2","76","78","75","","","","","","","","","","","","","","","",""
"574","
          <p id=""word"" style=""font-size: 40px;"">push</p>
          <p style=""font-size: 16px;"">J = YES &nbsp;&nbsp;&nbsp; F = NO</p>
        ","j","html-keyboard-response","82","2.1.0","182651","J=YES, F=NO","wxbv4k2zrs","2","76","78","75","","","","","","","","","push","van1","filler","filler","j","true","",""
"null","<p style=""font-size: 50px;"">+</p>","null","html-keyboard-response","83","2.1.0","182953","J=YES, F=NO","wxbv4k2zrs","2","76","78","75","","","","","","","","","","","","","","","",""
"null","audio/beep-329314.mp3","null","audio-keyboard-response","84","2.1.0","184486","J=YES, F=NO","wxbv4k2zrs","2","76","78","75","","","","","","","","","","","","","","","",""
"null","audio/terrain.wav","null","audio-keyboard-response","85","2.1.0","185076","J=YES, F=NO","wxbv4k2zrs","2","76","78","75","","","","","","","","","","","","","","","",""
"548","
          <p id=""word"" style=""font-size: 40px;"">twist</p>
          <p style=""font-size: 16px;"">J = YES &nbsp;&nbsp;&nbsp; F = NO</p>
        ","j","html-keyboard-response","86","2.1.0","185625","J=YES, F=NO","wxbv4k2zrs","2","76","78","75","","","","","","","","","twist","terrain","filler","filler","j","true","",""
"null","<p style=""font-size: 50px;"">+</p>","null","html-keyboard-response","87","2.1.0","185936","J=YES, F=NO","wxbv4k2zrs","2","76","78","75","","","","","","","","","","","","","","","",""
"null","audio/beep-329314.mp3","null","audio-keyboard-response","88","2.1.0","187466","J=YES, F=NO","wxbv4k2zrs","2","76","78","75","","","","","","","","","","","","","","","",""
"null","audio/ankle1.wav","null","audio-keyboard-response","89","2.1.0","187996","J=YES, F=NO","wxbv4k2zrs","2","76","78","75","","","","","","","","","","","","","","","",""
"587","
          <p id=""word"" style=""font-size: 40px;"">kick</p>
          <p style=""font-size: 16px;"">J = YES &nbsp;&nbsp;&nbsp; F = NO</p>
        ","j","html-keyboard-response","90","2.1.0","188584","J=YES, F=NO","wxbv4k2zrs","2","76","78","75","","","","","","","","","kick","ankle1","filler","filler","j","true","",""
"null","<p style=""font-size: 50px;"">+</p>","null","html-keyboard-response","91","2.1.0","188900","J=YES, F=NO","wxbv4k2zrs","2","76","78","75","","","","","","","","","","","","","","","",""
"null","audio/beep-329314.mp3","null","audio-keyboard-response","92","2.1.0","190426","J=YES, F=NO","wxbv4k2zrs","2","76","78","75","","","","","","","","","","","","","","","",""
"null","audio/haste1.wav","null","audio-keyboard-response","93","2.1.0","191016","J=YES, F=NO","wxbv4k2zrs","2","76","78","75","","","","","","","","","","","","","","","",""
"915","
          <p id=""word"" style=""font-size: 40px;"">coraconate</p>
          <p style=""font-size: 16px;"">J = YES &nbsp;&nbsp;&nbsp; F = NO</p>
        ","j","html-keyboard-response","94","2.1.0","191932","J=YES, F=NO","wxbv4k2zrs","2","76","78","75","","","","","","","","","coraconate","haste1","pseudoword","pseudoword","f","false","",""
"null","<p style=""font-size: 50px;"">+</p>","null","html-keyboard-response","95","2.1.0","192243","J=YES, F=NO","wxbv4k2zrs","2","76","78","75","","","","","","","","","","","","","","","",""
"null","audio/beep-329314.mp3","null","audio-keyboard-response","96","2.1.0","193767","J=YES, F=NO","wxbv4k2zrs","2","76","78","75","","","","","","","","","","","","","","","",""
"null","audio/theory1.wav","null","audio-keyboard-response","97","2.1.0","194437","J=YES, F=NO","wxbv4k2zrs","2","76","78","75","","","","","","","","","","","","","","","",""
"990","
          <p id=""word"" style=""font-size: 40px;"">scolve</p>
          <p style=""font-size: 16px;"">J = YES &nbsp;&nbsp;&nbsp; F = NO</p>
        ","f","html-keyboard-response","98","2.1.0","195427","J=YES, F=NO","wxbv4k2zrs","2","76","78","75","","","","","","","","","scolve","theory1","pseudoword","pseudoword","f","true","",""
"null","<p style=""font-size: 50px;"">+</p>","null","html-keyboard-response","99","2.1.0","195728","J=YES, F=NO","wxbv4k2zrs","2","76","78","75","","","","","","","","","","","","","","","",""
"null","audio/beep-329314.mp3","null","audio-keyboard-response","100","2.1.0","197267","J=YES, F=NO","wxbv4k2zrs","2","76","78","75","","","","","","","","","","","","","","","",""
"null","audio/foe1.wav","null","audio-keyboard-response","101","2.1.0","197796","J=YES, F=NO","wxbv4k2zrs","2","76","78","75","","","","","","","","","","","","","","","",""
"1280","
          <p id=""word"" style=""font-size: 40px;"">creth</p>
          <p style=""font-size: 16px;"">J = YES &nbsp;&nbsp;&nbsp; F = NO</p>
        ","j","html-keyboard-response","102","2.1.0","199077","J=YES, F=NO","wxbv4k2zrs","2","76","78","75","","","","","","","","","creth","foe1","pseudoword","pseudoword","f","false","",""
"null","<p style=""font-size: 50px;"">+</p>","null","html-keyboard-response","103","2.1.0","199381","J=YES, F=NO","wxbv4k2zrs","2","76","78","75","","","","","","","","","","","","","","","",""
"null","audio/beep-329314.mp3","null","audio-keyboard-response","104","2.1.0","200906","J=YES, F=NO","wxbv4k2zrs","2","76","78","75","","","","","","","","","","","","","","","",""
"null","audio/arm.wav","null","audio-keyboard-response","105","2.1.0","201476","J=YES, F=NO","wxbv4k2zrs","2","76","78","75","","","","","","","","","","","","","","","",""
"738","
          <p id=""word"" style=""font-size: 40px;"">pigne</p>
          <p style=""font-size: 16px;"">J = YES &nbsp;&nbsp;&nbsp; F = NO</p>
        ","f","html-keyboard-response","106","2.1.0","202215","J=YES, F=NO","wxbv4k2zrs","2","76","78","75","","","","","","","","","pigne","arm","pseudoword","pseudoword","f","true","",""
"null","<p style=""font-size: 50px;"">+</p>","null","html-keyboard-response","107","2.1.0","202523","J=YES, F=NO","wxbv4k2zrs","2","76","78","75","","","","","","","","","","","","","","","",""
"null","audio/beep-329314.mp3","null","audio-keyboard-response","108","2.1.0","204046","J=YES, F=NO","wxbv4k2zrs","2","76","78","75","","","","","","","","","","","","","","","",""
"null","audio/flaw.wav","null","audio-keyboard-response","109","2.1.0","204676","J=YES, F=NO","wxbv4k2zrs","2","76","78","75","","","","","","","","","","","","","","","",""
"763","
          <p id=""word"" style=""font-size: 40px;"">thwool</p>
          <p style=""font-size: 16px;"">J = YES &nbsp;&nbsp;&nbsp; F = NO</p>
        ","f","html-keyboard-response","110","2.1.0","205440","J=YES, F=NO","wxbv4k2zrs","2","76","78","75","","","","","","","","","thwool","flaw","pseudoword","pseudoword","f","true","",""
"null","<p style=""font-size: 50px;"">+</p>","null","html-keyboard-response","111","2.1.0","205749","J=YES, F=NO","wxbv4k2zrs","2","76","78","75","","","","","","","","","","","","","","","",""
"null","audio/beep-329314.mp3","null","audio-keyboard-response","112","2.1.0","207286","J=YES, F=NO","wxbv4k2zrs","2","76","78","75","","","","","","","","","","","","","","","",""
"null","audio/sand.wav","null","audio-keyboard-response","113","2.1.0","208056","J=YES, F=NO","wxbv4k2zrs","2","76","78","75","","","","","","","","","","","","","","","",""
"798","
          <p id=""word"" style=""font-size: 40px;"">proted</p>
          <p style=""font-size: 16px;"">J = YES &nbsp;&nbsp;&nbsp; F = NO</p>
        ","f","html-keyboard-response","114","2.1.0","208855","J=YES, F=NO","wxbv4k2zrs","2","76","78","75","","","","","","","","","proted","sand","pseudoword","pseudoword","f","true","",""
"1208","<p>Starting practice block 2 of 2. Press any key to continue.</p>"," ","html-keyboard-response","115","2.1.0","210063","J=YES, F=NO","wxbv4k2zrs","2","76","78","75","","","","","","","","","","","","","","","",""
"null","<p style=""font-size: 50px;"">+</p>","null","html-keyboard-response","116","2.1.0","210365","J=YES, F=NO","wxbv4k2zrs","2","76","78","75","","","","","","","","","","","","","","","",""
"null","audio/beep-329314.mp3","null","audio-keyboard-response","117","2.1.0","211887","J=YES, F=NO","wxbv4k2zrs","2","76","78","75","","","","","","","","","","","","","","","",""
"null","audio/voice.wav","null","audio-keyboard-response","118","2.1.0","212496","J=YES, F=NO","wxbv4k2zrs","2","76","78","75","","","","","","","","","","","","","","","",""
"1100","
          <p id=""word"" style=""font-size: 40px;"">grintle</p>
          <p style=""font-size: 16px;"">J = YES &nbsp;&nbsp;&nbsp; F = NO</p>
        ","f","html-keyboard-response","119","2.1.0","213597","J=YES, F=NO","wxbv4k2zrs","2","76","78","75","","","","","","","","","grintle","voice","pseudoword","pseudoword","f","true","",""
"null","<p style=""font-size: 50px;"">+</p>","null","html-keyboard-response","120","2.1.0","213903","J=YES, F=NO","wxbv4k2zrs","2","76","78","75","","","","","","","","","","","","","","","",""
"null","audio/beep-329314.mp3","null","audio-keyboard-response","121","2.1.0","215426","J=YES, F=NO","wxbv4k2zrs","2","76","78","75","","","","","","","","","","","","","","","",""
"null","audio/age1.wav","null","audio-keyboard-response","122","2.1.0","215976","J=YES, F=NO","wxbv4k2zrs","2","76","78","75","","","","","","","","","","","","","","","",""
"1259","
          <p id=""word"" style=""font-size: 40px;"">bake</p>
          <p style=""font-size: 16px;"">J = YES &nbsp;&nbsp;&nbsp; F = NO</p>
        ","j","html-keyboard-response","123","2.1.0","217236","J=YES, F=NO","wxbv4k2zrs","2","76","78","75","","","","","","","","","bake","age1","filler","filler","j","true","",""
"null","<p style=""font-size: 50px;"">+</p>","null","html-keyboard-response","124","2.1.0","217549","J=YES, F=NO","wxbv4k2zrs","2","76","78","75","","","","","","","","","","","","","","","",""
"null","audio/beep-329314.mp3","null","audio-keyboard-response","125","2.1.0","219087","J=YES, F=NO","wxbv4k2zrs","2","76","78","75","","","","","","","","","","","","","","","",""
"null","audio/beach1.wav","null","audio-keyboard-response","126","2.1.0","219676","J=YES, F=NO","wxbv4k2zrs","2","76","78","75","","","","","","","","","","","","","","","",""
"1001","
          <p id=""word"" style=""font-size: 40px;"">drive</p>
          <p style=""font-size: 16px;"">J = YES &nbsp;&nbsp;&nbsp; F = NO</p>
        ","j","html-keyboard-response","127","2.1.0","220678","J=YES, F=NO","wxbv4k2zrs","2","76","78","75","","","","","","","","","drive","beach1","filler","filler","j","true","",""
"null","<p style=""font-size: 50px;"">+</p>","null","html-keyboard-response","128","2.1.0","220993","J=YES, F=NO","wxbv4k2zrs","2","76","78","75","","","","","","","","","","","","","","","",""
"null","audio/beep-329314.mp3","null","audio-keyboard-response","129","2.1.0","222526","J=YES, F=NO","wxbv4k2zrs","2","76","78","75","","","","","","","","","","","","","","","",""
"null","audio/vehicle1.wav","null","audio-keyboard-response","130","2.1.0","223196","J=YES, F=NO","wxbv4k2zrs","2","76","78","75","","","","","","","","","","","","","","","",""
"791","
          <p id=""word"" style=""font-size: 40px;"">dropt</p>
          <p style=""font-size: 16px;"">J = YES &nbsp;&nbsp;&nbsp; F = NO</p>
        ","f","html-keyboard-response","131","2.1.0","223988","J=YES, F=NO","wxbv4k2zrs","2","76","78","75","","","","","","","","","dropt","vehicle1","pseudoword","pseudoword","f","true","",""
"null","<p style=""font-size: 50px;"">+</p>","null","html-keyboard-response","132","2.1.0","224296","J=YES, F=NO","wxbv4k2zrs","2","76","78","75","","","","","","","","","","","","","","","",""
"null","audio/beep-329314.mp3","null","audio-keyboard-response","133","2.1.0","225826","J=YES, F=NO","wxbv4k2zrs","2","76","78","75","","","","","","","","","","","","","","","",""
"null","audio/bridge.wav","null","audio-keyboard-response","134","2.1.0","226376","J=YES, F=NO","wxbv4k2zrs","2","76","78","75","","","","","","","","","","","","","","","",""
"833","
          <p id=""word"" style=""font-size: 40px;"">crack</p>
          <p style=""font-size: 16px;"">J = YES &nbsp;&nbsp;&nbsp; F = NO</p>
        ","j","html-keyboard-response","135","2.1.0","227210","J=YES, F=NO","wxbv4k2zrs","2","76","78","75","","","","","","","","","crack","bridge","filler","filler","j","true","",""
"null","<p style=""font-size: 50px;"">+</p>","null","html-keyboard-response","136","2.1.0","227524","J=YES, F=NO","wxbv4k2zrs","2","76","78","75","","","","","","","","","","","","","","","",""
"null","audio/beep-329314.mp3","null","audio-keyboard-response","137","2.1.0","229047","J=YES, F=NO","wxbv4k2zrs","2","76","78","75","","","","","","","","","","","","","","","",""
"null","audio/butter1.wav","null","audio-keyboard-response","138","2.1.0","229516","J=YES, F=NO","wxbv4k2zrs","2","76","78","75","","","","","","","","","","","","","","","",""
"834","
          <p id=""word"" style=""font-size: 40px;"">chew</p>
          <p style=""font-size: 16px;"">J = YES &nbsp;&nbsp;&nbsp; F = NO</p>
        ","j","html-keyboard-response","139","2.1.0","230351","J=YES, F=NO","wxbv4k2zrs","2","76","78","75","","","","","","","","","chew","butter1","filler","filler","j","true","",""
"null","<p style=""font-size: 50px;"">+</p>","null","html-keyboard-response","140","2.1.0","230654","J=YES, F=NO","wxbv4k2zrs","2","76","78","75","","","","","","","","","","","","","","","",""
"null","audio/beep-329314.mp3","null","audio-keyboard-response","141","2.1.0","232186","J=YES, F=NO","wxbv4k2zrs","2","76","78","75","","","","","","","","","","","","","","","",""
"null","audio/ankle1.wav","null","audio-keyboard-response","142","2.1.0","232696","J=YES, F=NO","wxbv4k2zrs","2","76","78","75","","","","","","","","","","","","","","","",""
"869","
          <p id=""word"" style=""font-size: 40px;"">switm</p>
          <p style=""font-size: 16px;"">J = YES &nbsp;&nbsp;&nbsp; F = NO</p>
        ","f","html-keyboard-response","143","2.1.0","233566","J=YES, F=NO","wxbv4k2zrs","2","76","78","75","","","","","","","","","switm","ankle1","pseudoword","pseudoword","f","true","",""
"null","<p style=""font-size: 50px;"">+</p>","null","html-keyboard-response","144","2.1.0","233873","J=YES, F=NO","wxbv4k2zrs","2","76","78","75","","","","","","","","","","","","","","","",""
"null","audio/beep-329314.mp3","null","audio-keyboard-response","145","2.1.0","235407","J=YES, F=NO","wxbv4k2zrs","2","76","78","75","","","","","","","","","","","","","","","",""
"null","audio/alarm1.wav","null","audio-keyboard-response","146","2.1.0","235996","J=YES, F=NO","wxbv4k2zrs","2","76","78","75","","","","","","","","","","","","","","","",""
"805","
          <p id=""word"" style=""font-size: 40px;"">lock</p>
          <p style=""font-size: 16px;"">J = YES &nbsp;&nbsp;&nbsp; F = NO</p>
        ","j","html-keyboard-response","147","2.1.0","236802","J=YES, F=NO","wxbv4k2zrs","2","76","78","75","","","","","","","","","lock","alarm1","filler","filler","j","true","",""
"null","<p style=""font-size: 50px;"">+</p>","null","html-keyboard-response","148","2.1.0","237116","J=YES, F=NO","wxbv4k2zrs","2","76","78","75","","","","","","","","","","","","","","","",""
"null","audio/beep-329314.mp3","null","audio-keyboard-response","149","2.1.0","238647","J=YES, F=NO","wxbv4k2zrs","2","76","78","75","","","","","","","","","","","","","","","",""
"null","audio/dollar.wav","null","audio-keyboard-response","150","2.1.0","239056","J=YES, F=NO","wxbv4k2zrs","2","76","78","75","","","","","","","","","","","","","","","",""
"684","
          <p id=""word"" style=""font-size: 40px;"">gliptism</p>
          <p style=""font-size: 16px;"">J = YES &nbsp;&nbsp;&nbsp; F = NO</p>
        ","f","html-keyboard-response","151","2.1.0","239741","J=YES, F=NO","wxbv4k2zrs","2","76","78","75","","","","","","","","","gliptism","dollar","pseudoword","pseudoword","f","true","",""
"null","<p style=""font-size: 50px;"">+</p>","null","html-keyboard-response","152","2.1.0","240057","J=YES, F=NO","wxbv4k2zrs","2","76","78","75","","","","","","","","","","","","","","","",""
"null","audio/beep-329314.mp3","null","audio-keyboard-response","153","2.1.0","241586","J=YES, F=NO","wxbv4k2zrs","2","76","78","75","","","","","","","","","","","","","","","",""
"null","audio/camera1.wav","null","audio-keyboard-response","154","2.1.0","242096","J=YES, F=NO","wxbv4k2zrs","2","76","78","75","","","","","","","","","","","","","","","",""
"974","
          <p id=""word"" style=""font-size: 40px;"">stir</p>
          <p style=""font-size: 16px;"">J = YES &nbsp;&nbsp;&nbsp; F = NO</p>
        ","f","html-keyboard-response","155","2.1.0","243071","J=YES, F=NO","wxbv4k2zrs","2","76","78","75","","","","","","","","","stir","camera1","filler","filler","j","false","",""
"null","<p style=""font-size: 50px;"">+</p>","null","html-keyboard-response","156","2.1.0","243380","J=YES, F=NO","wxbv4k2zrs","2","76","78","75","","","","","","","","","","","","","","","",""
"null","audio/beep-329314.mp3","null","audio-keyboard-response","157","2.1.0","244906","J=YES, F=NO","wxbv4k2zrs","2","76","78","75","","","","","","","","","","","","","","","",""
"null","audio/pain1.wav","null","audio-keyboard-response","158","2.1.0","245336","J=YES, F=NO","wxbv4k2zrs","2","76","78","75","","","","","","","","","","","","","","","",""
"null","
          <p id=""word"" style=""font-size: 40px;"">tritted</p>
          <p style=""font-size: 16px;"">J = YES &nbsp;&nbsp;&nbsp; F = NO</p>
        ","null","html-keyboard-response","159","2.1.0","246846","J=YES, F=NO","wxbv4k2zrs","2","76","78","75","","","","","","","","","tritted","pain1","pseudoword","pseudoword","f","false","",""
"null","<p style=""font-size: 50px;"">+</p>","null","html-keyboard-response","160","2.1.0","247156","J=YES, F=NO","wxbv4k2zrs","2","76","78","75","","","","","","","","","","","","","","","",""
"null","audio/beep-329314.mp3","null","audio-keyboard-response","161","2.1.0","248686","J=YES, F=NO","wxbv4k2zrs","2","76","78","75","","","","","","","","","","","","","","","",""
"null","audio/arm.wav","null","audio-keyboard-response","162","2.1.0","249216","J=YES, F=NO","wxbv4k2zrs","2","76","78","75","","","","","","","","","","","","","","","",""
"null","
          <p id=""word"" style=""font-size: 40px;"">fold</p>
          <p style=""font-size: 16px;"">J = YES &nbsp;&nbsp;&nbsp; F = NO</p>
        ","null","html-keyboard-response","163","2.1.0","250720","J=YES, F=NO","wxbv4k2zrs","2","76","78","75","","","","","","","","","fold","arm","filler","filler","j","false","",""
"3281","
    <div style=""max-width: 800px; margin: auto; text-align: left;"">
      <h2>Part 2: Main Trials</h2>
      <p>Great job on the practice trials!</p>
      <p>You will now begin the <strong>main set of trials</strong>.</p>
      <p>Remember your key assignments:</p>
      <ul>
        <li><strong>J</strong> = YES (real English word)</li>
        <li><strong>F</strong> = NO (not a real English word)</li>
      </ul>
      <p>Try to respond as <strong>quickly and accurately</strong> as possible.</p>
      <p style=""margin-top: 2em;"">Press any key to begin the main trials.</p>
    </div>
  "," ","html-keyboard-response","164","2.1.0","254002","J=YES, F=NO","wxbv4k2zrs","2","76","78","75","","","","","","","","","","","","","","","",""
"4563","<p>Starting main block 1 of 8. Press any key to continue.</p>"," ","html-keyboard-response","165","2.1.0","258565","J=YES, F=NO","wxbv4k2zrs","2","76","78","75","","","","","","","","","","","","","","","",""
"null","<p style=""font-size: 50px;"">+</p>","null","html-keyboard-response","166","2.1.0","258876","J=YES, F=NO","wxbv4k2zrs","2","76","78","75","","","","","","","","","","","","","","","",""
"null","audio/beep-329314.mp3","null","audio-keyboard-response","167","2.1.0","260386","J=YES, F=NO","wxbv4k2zrs","2","76","78","75","","","","","","","","","","","","","","","",""
"null","audio/ego.wav","null","audio-keyboard-response","168","2.1.0","260906","J=YES, F=NO","wxbv4k2zrs","2","76","78","75","","","","","","","","","","","","","","","",""
"866","
          <p id=""word"" style=""font-size: 40px;"">bruite</p>
          <p style=""font-size: 16px;"">J = YES &nbsp;&nbsp;&nbsp; F = NO</p>
        ","f","html-keyboard-response","169","2.1.0","261773","J=YES, F=NO","wxbv4k2zrs","2","76","78","75","","","","","","","","","bruite","ego","pseudoword","pseudoword","f","true","",""
"null","<p style=""font-size: 50px;"">+</p>","null","html-keyboard-response","170","2.1.0","262075","J=YES, F=NO","wxbv4k2zrs","2","76","78","75","","","","","","","","","","","","","","","",""
"null","audio/beep-329314.mp3","null","audio-keyboard-response","171","2.1.0","263607","J=YES, F=NO","wxbv4k2zrs","2","76","78","75","","","","","","","","","","","","","","","",""
"null","audio/bush1.wav","null","audio-keyboard-response","172","2.1.0","264066","J=YES, F=NO","wxbv4k2zrs","2","76","78","75","","","","","","","","","","","","","","","",""
"1212","
          <p id=""word"" style=""font-size: 40px;"">platined</p>
          <p style=""font-size: 16px;"">J = YES &nbsp;&nbsp;&nbsp; F = NO</p>
        ","j","html-keyboard-response","173","2.1.0","265279","J=YES, F=NO","wxbv4k2zrs","2","76","78","75","","","","","","","","","platined","bush1","pseudoword","pseudoword","f","false","",""
"null","<p style=""font-size: 50px;"">+</p>","null","html-keyboard-response","174","2.1.0","265591","J=YES, F=NO","wxbv4k2zrs","2","76","78","75","","","","","","","","","","","","","","","",""
"null","audio/beep-329314.mp3","null","audio-keyboard-response","175","2.1.0","267126","J=YES, F=NO","wxbv4k2zrs","2","76","78","75","","","","","","","","","","","","","","","",""
"null","audio/bridge.wav","null","audio-keyboard-response","176","2.1.0","267666","J=YES, F=NO","wxbv4k2zrs","2","76","78","75","","","","","","","","","","","","","","","",""
"914","
          <p id=""word"" style=""font-size: 40px;"">build</p>
          <p style=""font-size: 16px;"">J = YES &nbsp;&nbsp;&nbsp; F = NO</p>
        ","j","html-keyboard-response","177","2.1.0","268581","J=YES, F=NO","wxbv4k2zrs","2","76","78","75","","","","","","","","","build","bridge","literal","experimental","j","true","",""
"null","<p style=""font-size: 50px;"">+</p>","null","html-keyboard-response","178","2.1.0","268892","J=YES, F=NO","wxbv4k2zrs","2","76","78","75","","","","","","","","","","","","","","","",""
"null","audio/beep-329314.mp3","null","audio-keyboard-response","179","2.1.0","270426","J=YES, F=NO","wxbv4k2zrs","2","76","78","75","","","","","","","","","","","","","","","",""
"null","audio/roof1.wav","null","audio-keyboard-response","180","2.1.0","270966","J=YES, F=NO","wxbv4k2zrs","2","76","78","75","","","","","","","","","","","","","","","",""
"798","
          <p id=""word"" style=""font-size: 40px;"">wronb</p>
          <p style=""font-size: 16px;"">J = YES &nbsp;&nbsp;&nbsp; F = NO</p>
        ","f","html-keyboard-response","181","2.1.0","271765","J=YES, F=NO","wxbv4k2zrs","2","76","78","75","","","","","","","","","wronb","roof1","pseudoword","pseudoword","f","true","",""
"null","<p style=""font-size: 50px;"">+</p>","null","html-keyboard-response","182","2.1.0","272079","J=YES, F=NO","wxbv4k2zrs","2","76","78","75","","","","","","","","","","","","","","","",""
"null","audio/beep-329314.mp3","null","audio-keyboard-response","183","2.1.0","273606","J=YES, F=NO","wxbv4k2zrs","2","76","78","75","","","","","","","","","","","","","","","",""
"null","audio/road.wav","null","audio-keyboard-response","184","2.1.0","274026","J=YES, F=NO","wxbv4k2zrs","2","76","78","75","","","","","","","","","","","","","","","",""
"739","
          <p id=""word"" style=""font-size: 40px;"">wappings</p>
          <p style=""font-size: 16px;"">J = YES &nbsp;&nbsp;&nbsp; F = NO</p>
        ","f","html-keyboard-response","185","2.1.0","274766","J=YES, F=NO","wxbv4k2zrs","2","76","78","75","","","","","","","","","wappings","road","pseudoword","pseudoword","f","true","",""
"null","<p style=""font-size: 50px;"">+</p>","null","html-keyboard-response","186","2.1.0","275074","J=YES, F=NO","wxbv4k2zrs","2","76","78","75","","","","","","","","","","","","","","","",""
"null","audio/beep-329314.mp3","null","audio-keyboard-response","187","2.1.0","276606","J=YES, F=NO","wxbv4k2zrs","2","76","78","75","","","","","","","","","","","","","","","",""
"null","audio/bishop1.wav","null","audio-keyboard-response","188","2.1.0","277186","J=YES, F=NO","wxbv4k2zrs","2","76","78","75","","","","","","","","","","","","","","","",""
"580","
          <p id=""word"" style=""font-size: 40px;"">play</p>
          <p style=""font-size: 16px;"">J = YES &nbsp;&nbsp;&nbsp; F = NO</p>
        ","j","html-keyboard-response","189","2.1.0","277767","J=YES, F=NO","wxbv4k2zrs","2","76","78","75","","","","","","","","","play","bishop1","filler","filler","j","true","",""
"null","<p style=""font-size: 50px;"">+</p>","null","html-keyboard-response","190","2.1.0","278076","J=YES, F=NO","wxbv4k2zrs","2","76","78","75","","","","","","","","","","","","","","","",""
"null","audio/beep-329314.mp3","null","audio-keyboard-response","191","2.1.0","279606","J=YES, F=NO","wxbv4k2zrs","2","76","78","75","","","","","","","","","","","","","","","",""
"null","audio/trout1.wav","null","audio-keyboard-response","192","2.1.0","280186","J=YES, F=NO","wxbv4k2zrs","2","76","78","75","","","","","","","","","","","","","","","",""
"788","
          <p id=""word"" style=""font-size: 40px;"">catch</p>
          <p style=""font-size: 16px;"">J = YES &nbsp;&nbsp;&nbsp; F = NO</p>
        ","j","html-keyboard-response","193","2.1.0","280975","J=YES, F=NO","wxbv4k2zrs","2","76","78","75","","","","","","","","","catch","trout1","literal","experimental","j","true","",""
"null","<p style=""font-size: 50px;"">+</p>","null","html-keyboard-response","194","2.1.0","281279","J=YES, F=NO","wxbv4k2zrs","2","76","78","75","","","","","","","","","","","","","","","",""
"null","audio/beep-329314.mp3","null","audio-keyboard-response","195","2.1.0","282807","J=YES, F=NO","wxbv4k2zrs","2","76","78","75","","","","","","","","","","","","","","","",""
"null","audio/bomb1.wav","null","audio-keyboard-response","196","2.1.0","283186","J=YES, F=NO","wxbv4k2zrs","2","76","78","75","","","","","","","","","","","","","","","",""
"636","
          <p id=""word"" style=""font-size: 40px;"">clean</p>
          <p style=""font-size: 16px;"">J = YES &nbsp;&nbsp;&nbsp; F = NO</p>
        ","j","html-keyboard-response","197","2.1.0","283823","J=YES, F=NO","wxbv4k2zrs","2","76","78","75","","","","","","","","","clean","bomb1","filler","filler","j","true","",""
"null","<p style=""font-size: 50px;"">+</p>","null","html-keyboard-response","198","2.1.0","284136","J=YES, F=NO","wxbv4k2zrs","2","76","78","75","","","","","","","","","","","","","","","",""
"null","audio/beep-329314.mp3","null","audio-keyboard-response","199","2.1.0","285666","J=YES, F=NO","wxbv4k2zrs","2","76","78","75","","","","","","","","","","","","","","","",""
"null","audio/client1.wav","null","audio-keyboard-response","200","2.1.0","286366","J=YES, F=NO","wxbv4k2zrs","2","76","78","75","","","","","","","","","","","","","","","",""
"776","
          <p id=""word"" style=""font-size: 40px;"">droothe</p>
          <p style=""font-size: 16px;"">J = YES &nbsp;&nbsp;&nbsp; F = NO</p>
        ","f","html-keyboard-response","201","2.1.0","287143","J=YES, F=NO","wxbv4k2zrs","2","76","78","75","","","","","","","","","droothe","client1","pseudoword","pseudoword","f","true","",""
"null","<p style=""font-size: 50px;"">+</p>","null","html-keyboard-response","202","2.1.0","287450","J=YES, F=NO","wxbv4k2zrs","2","76","78","75","","","","","","","","","","","","","","","",""
"null","audio/beep-329314.mp3","null","audio-keyboard-response","203","2.1.0","288986","J=YES, F=NO","wxbv4k2zrs","2","76","78","75","","","","","","","","","","","","","","","",""
"null","audio/trust.wav","null","audio-keyboard-response","204","2.1.0","289606","J=YES, F=NO","wxbv4k2zrs","2","76","78","75","","","","","","","","","","","","","","","",""
"859","
          <p id=""word"" style=""font-size: 40px;"">swint</p>
          <p style=""font-size: 16px;"">J = YES &nbsp;&nbsp;&nbsp; F = NO</p>
        ","f","html-keyboard-response","205","2.1.0","290466","J=YES, F=NO","wxbv4k2zrs","2","76","78","75","","","","","","","","","swint","trust","pseudoword","pseudoword","f","true","",""
"null","<p style=""font-size: 50px;"">+</p>","null","html-keyboard-response","206","2.1.0","290767","J=YES, F=NO","wxbv4k2zrs","2","76","78","75","","","","","","","","","","","","","","","",""
"null","audio/beep-329314.mp3","null","audio-keyboard-response","207","2.1.0","292306","J=YES, F=NO","wxbv4k2zrs","2","76","78","75","","","","","","","","","","","","","","","",""
"null","audio/neck.wav","null","audio-keyboard-response","208","2.1.0","292846","J=YES, F=NO","wxbv4k2zrs","2","76","78","75","","","","","","","","","","","","","","","",""
"932","
          <p id=""word"" style=""font-size: 40px;"">share</p>
          <p style=""font-size: 16px;"">J = YES &nbsp;&nbsp;&nbsp; F = NO</p>
        ","f","html-keyboard-response","209","2.1.0","293779","J=YES, F=NO","wxbv4k2zrs","2","76","78","75","","","","","","","","","share","neck","unrelated","experimental","j","false","",""
"null","<p style=""font-size: 50px;"">+</p>","null","html-keyboard-response","210","2.1.0","294089","J=YES, F=NO","wxbv4k2zrs","2","76","78","75","","","","","","","","","","","","","","","",""
"null","audio/beep-329314.mp3","null","audio-keyboard-response","211","2.1.0","295626","J=YES, F=NO","wxbv4k2zrs","2","76","78","75","","","","","","","","","","","","","","","",""
"null","audio/mile1.wav","null","audio-keyboard-response","212","2.1.0","296106","J=YES, F=NO","wxbv4k2zrs","2","76","78","75","","","","","","","","","","","","","","","",""
"978","
          <p id=""word"" style=""font-size: 40px;"">writch</p>
          <p style=""font-size: 16px;"">J = YES &nbsp;&nbsp;&nbsp; F = NO</p>
        ","f","html-keyboard-response","213","2.1.0","297085","J=YES, F=NO","wxbv4k2zrs","2","76","78","75","","","","","","","","","writch","mile1","pseudoword","pseudoword","f","true","",""
"null","<p style=""font-size: 50px;"">+</p>","null","html-keyboard-response","214","2.1.0","297396","J=YES, F=NO","wxbv4k2zrs","2","76","78","75","","","","","","","","","","","","","","","",""
"null","audio/beep-329314.mp3","null","audio-keyboard-response","215","2.1.0","298926","J=YES, F=NO","wxbv4k2zrs","2","76","78","75","","","","","","","","","","","","","","","",""
"null","audio/foot1.wav","null","audio-keyboard-response","216","2.1.0","299487","J=YES, F=NO","wxbv4k2zrs","2","76","78","75","","","","","","","","","","","","","","","",""
"718","
          <p id=""word"" style=""font-size: 40px;"">thrutt</p>
          <p style=""font-size: 16px;"">J = YES &nbsp;&nbsp;&nbsp; F = NO</p>
        ","f","html-keyboard-response","217","2.1.0","300206","J=YES, F=NO","wxbv4k2zrs","2","76","78","75","","","","","","","","","thrutt","foot1","pseudoword","pseudoword","f","true","",""
"null","<p style=""font-size: 50px;"">+</p>","null","html-keyboard-response","218","2.1.0","300520","J=YES, F=NO","wxbv4k2zrs","2","76","78","75","","","","","","","","","","","","","","","",""
"null","audio/beep-329314.mp3","null","audio-keyboard-response","219","2.1.0","302046","J=YES, F=NO","wxbv4k2zrs","2","76","78","75","","","","","","","","","","","","","","","",""
"null","audio/cash1.wav","null","audio-keyboard-response","220","2.1.0","302607","J=YES, F=NO","wxbv4k2zrs","2","76","78","75","","","","","","","","","","","","","","","",""
"593","
          <p id=""word"" style=""font-size: 40px;"">invest</p>
          <p style=""font-size: 16px;"">J = YES &nbsp;&nbsp;&nbsp; F = NO</p>
        ","j","html-keyboard-response","221","2.1.0","303200","J=YES, F=NO","wxbv4k2zrs","2","76","78","75","","","","","","","","","invest","cash1","literal","experimental","j","true","",""
"null","<p style=""font-size: 50px;"">+</p>","null","html-keyboard-response","222","2.1.0","303507","J=YES, F=NO","wxbv4k2zrs","2","76","78","75","","","","","","","","","","","","","","","",""
"null","audio/beep-329314.mp3","null","audio-keyboard-response","223","2.1.0","305046","J=YES, F=NO","wxbv4k2zrs","2","76","78","75","","","","","","","","","","","","","","","",""
"null","audio/ego.wav","null","audio-keyboard-response","224","2.1.0","305586","J=YES, F=NO","wxbv4k2zrs","2","76","78","75","","","","","","","","","","","","","","","",""
"1143","
          <p id=""word"" style=""font-size: 40px;"">feed</p>
          <p style=""font-size: 16px;"">J = YES &nbsp;&nbsp;&nbsp; F = NO</p>
        ","j","html-keyboard-response","225","2.1.0","306730","J=YES, F=NO","wxbv4k2zrs","2","76","78","75","","","","","","","","","feed","ego","metaphor","experimental","j","true","",""
"null","<p style=""font-size: 50px;"">+</p>","null","html-keyboard-response","226","2.1.0","307046","J=YES, F=NO","wxbv4k2zrs","2","76","78","75","","","","","","","","","","","","","","","",""
"null","audio/beep-329314.mp3","null","audio-keyboard-response","227","2.1.0","308566","J=YES, F=NO","wxbv4k2zrs","2","76","78","75","","","","","","","","","","","","","","","",""
"null","audio/window1.wav","null","audio-keyboard-response","228","2.1.0","309166","J=YES, F=NO","wxbv4k2zrs","2","76","78","75","","","","","","","","","","","","","","","",""
"676","
          <p id=""word"" style=""font-size: 40px;"">toss</p>
          <p style=""font-size: 16px;"">J = YES &nbsp;&nbsp;&nbsp; F = NO</p>
        ","j","html-keyboard-response","229","2.1.0","309843","J=YES, F=NO","wxbv4k2zrs","2","76","78","75","","","","","","","","","toss","window1","filler","filler","j","true","",""
"5120","<p>Excellent! You have finished block 1 of 8.</p>
                     <p>Feel free to take a 30 second break.</p>
                     <p>Press any key when you're ready to continue.</p>","j","html-keyboard-response","230","2.1.0","314964","J=YES, F=NO","wxbv4k2zrs","2","76","78","75","","","","","","","","","","","","","","","",""
"1008","<p>Starting main block 2 of 8. Press any key to continue.</p>"," ","html-keyboard-response","231","2.1.0","315972","J=YES, F=NO","wxbv4k2zrs","2","76","78","75","","","","","","","","","","","","","","","",""
"null","<p style=""font-size: 50px;"">+</p>","null","html-keyboard-response","232","2.1.0","316276","J=YES, F=NO","wxbv4k2zrs","2","76","78","75","","","","","","","","","","","","","","","",""
"null","audio/beep-329314.mp3","null","audio-keyboard-response","233","2.1.0","317806","J=YES, F=NO","wxbv4k2zrs","2","76","78","75","","","","","","","","","","","","","","","",""
"null","audio/survey1.wav","null","audio-keyboard-response","234","2.1.0","318526","J=YES, F=NO","wxbv4k2zrs","2","76","78","75","","","","","","","","","","","","","","","",""
"531","
          <p id=""word"" style=""font-size: 40px;"">release</p>
          <p style=""font-size: 16px;"">J = YES &nbsp;&nbsp;&nbsp; F = NO</p>
        ","j","html-keyboard-response","235","2.1.0","319058","J=YES, F=NO","wxbv4k2zrs","2","76","78","75","","","","","","","","","release","survey1","metaphor","experimental","j","true","",""
"null","<p style=""font-size: 50px;"">+</p>","null","html-keyboard-response","236","2.1.0","319368","J=YES, F=NO","wxbv4k2zrs","2","76","78","75","","","","","","","","","","","","","","","",""
"null","audio/beep-329314.mp3","null","audio-keyboard-response","237","2.1.0","320906","J=YES, F=NO","wxbv4k2zrs","2","76","78","75","","","","","","","","","","","","","","","",""
"null","audio/card1.wav","null","audio-keyboard-response","238","2.1.0","321447","J=YES, F=NO","wxbv4k2zrs","2","76","78","75","","","","","","","","","","","","","","","",""
"537","
          <p id=""word"" style=""font-size: 40px;"">land</p>
          <p style=""font-size: 16px;"">J = YES &nbsp;&nbsp;&nbsp; F = NO</p>
        ","j","html-keyboard-response","239","2.1.0","321985","J=YES, F=NO","wxbv4k2zrs","2","76","78","75","","","","","","","","","land","card1","unrelated","experimental","j","true","",""
"null","<p style=""font-size: 50px;"">+</p>","null","html-keyboard-response","240","2.1.0","322300","J=YES, F=NO","wxbv4k2zrs","2","76","78","75","","","","","","","","","","","","","","","",""
"null","audio/beep-329314.mp3","null","audio-keyboard-response","241","2.1.0","323827","J=YES, F=NO","wxbv4k2zrs","2","76","78","75","","","","","","","","","","","","","","","",""
"null","audio/strength.wav","null","audio-keyboard-response","242","2.1.0","324546","J=YES, F=NO","wxbv4k2zrs","2","76","78","75","","","","","","","","","","","","","","","",""
"744","
          <p id=""word"" style=""font-size: 40px;"">plabet</p>
          <p style=""font-size: 16px;"">J = YES &nbsp;&nbsp;&nbsp; F = NO</p>
        ","f","html-keyboard-response","243","2.1.0","325291","J=YES, F=NO","wxbv4k2zrs","2","76","78","75","","","","","","","","","plabet","strength","pseudoword","pseudoword","f","true","",""
"null","<p style=""font-size: 50px;"">+</p>","null","html-keyboard-response","244","2.1.0","325602","J=YES, F=NO","wxbv4k2zrs","2","76","78","75","","","","","","","","","","","","","","","",""
"null","audio/beep-329314.mp3","null","audio-keyboard-response","245","2.1.0","327126","J=YES, F=NO","wxbv4k2zrs","2","76","78","75","","","","","","","","","","","","","","","",""
"null","audio/hotel1.wav","null","audio-keyboard-response","246","2.1.0","327746","J=YES, F=NO","wxbv4k2zrs","2","76","78","75","","","","","","","","","","","","","","","",""
"766","
          <p id=""word"" style=""font-size: 40px;"">flanter</p>
          <p style=""font-size: 16px;"">J = YES &nbsp;&nbsp;&nbsp; F = NO</p>
        ","j","html-keyboard-response","247","2.1.0","328513","J=YES, F=NO","wxbv4k2zrs","2","76","78","75","","","","","","","","","flanter","hotel1","pseudoword","pseudoword","f","false","",""
"null","<p style=""font-size: 50px;"">+</p>","null","html-keyboard-response","248","2.1.0","328815","J=YES, F=NO","wxbv4k2zrs","2","76","78","75","","","","","","","","","","","","","","","",""
"null","audio/beep-329314.mp3","null","audio-keyboard-response","249","2.1.0","330346","J=YES, F=NO","wxbv4k2zrs","2","76","78","75","","","","","","","","","","","","","","","",""
"null","audio/plot1.wav","null","audio-keyboard-response","250","2.1.0","330886","J=YES, F=NO","wxbv4k2zrs","2","76","78","75","","","","","","","","","","","","","","","",""
"764","
          <p id=""word"" style=""font-size: 40px;"">glenter</p>
          <p style=""font-size: 16px;"">J = YES &nbsp;&nbsp;&nbsp; F = NO</p>
        ","f","html-keyboard-response","251","2.1.0","331651","J=YES, F=NO","wxbv4k2zrs","2","76","78","75","","","","","","","","","glenter","plot1","pseudoword","pseudoword","f","true","",""
"null","<p style=""font-size: 50px;"">+</p>","null","html-keyboard-response","252","2.1.0","331962","J=YES, F=NO","wxbv4k2zrs","2","76","78","75","","","","","","","","","","","","","","","",""
"null","audio/beep-329314.mp3","null","audio-keyboard-response","253","2.1.0","333486","J=YES, F=NO","wxbv4k2zrs","2","76","78","75","","","","","","","","","","","","","","","",""
"null","audio/pig.wav","null","audio-keyboard-response","254","2.1.0","333866","J=YES, F=NO","wxbv4k2zrs","2","76","78","75","","","","","","","","","","","","","","","",""
"716","
          <p id=""word"" style=""font-size: 40px;"">tirlike</p>
          <p style=""font-size: 16px;"">J = YES &nbsp;&nbsp;&nbsp; F = NO</p>
        ","f","html-keyboard-response","255","2.1.0","334583","J=YES, F=NO","wxbv4k2zrs","2","76","78","75","","","","","","","","","tirlike","pig","pseudoword","pseudoword","f","true","",""
"null","<p style=""font-size: 50px;"">+</p>","null","html-keyboard-response","256","2.1.0","334896","J=YES, F=NO","wxbv4k2zrs","2","76","78","75","","","","","","","","","","","","","","","",""
"null","audio/beep-329314.mp3","null","audio-keyboard-response","257","2.1.0","336426","J=YES, F=NO","wxbv4k2zrs","2","76","78","75","","","","","","","","","","","","","","","",""
"null","audio/effort.wav","null","audio-keyboard-response","258","2.1.0","337006","J=YES, F=NO","wxbv4k2zrs","2","76","78","75","","","","","","","","","","","","","","","",""
"1022","
          <p id=""word"" style=""font-size: 40px;"">whonk</p>
          <p style=""font-size: 16px;"">J = YES &nbsp;&nbsp;&nbsp; F = NO</p>
        ","f","html-keyboard-response","259","2.1.0","338029","J=YES, F=NO","wxbv4k2zrs","2","76","78","75","","","","","","","","","whonk","effort","pseudoword","pseudoword","f","true","",""
"null","<p style=""font-size: 50px;"">+</p>","null","html-keyboard-response","260","2.1.0","338341","J=YES, F=NO","wxbv4k2zrs","2","76","78","75","","","","","","","","","","","","","","","",""
"null","audio/beep-329314.mp3","null","audio-keyboard-response","261","2.1.0","339866","J=YES, F=NO","wxbv4k2zrs","2","76","78","75","","","","","","","","","","","","","","","",""
"null","audio/survey1.wav","null","audio-keyboard-response","262","2.1.0","340586","J=YES, F=NO","wxbv4k2zrs","2","76","78","75","","","","","","","","","","","","","","","",""
"709","
          <p id=""word"" style=""font-size: 40px;"">imploth</p>
          <p style=""font-size: 16px;"">J = YES &nbsp;&nbsp;&nbsp; F = NO</p>
        ","f","html-keyboard-response","263","2.1.0","341296","J=YES, F=NO","wxbv4k2zrs","2","76","78","75","","","","","","","","","imploth","survey1","pseudoword","pseudoword","f","true","",""
"null","<p style=""font-size: 50px;"">+</p>","null","html-keyboard-response","264","2.1.0","341600","J=YES, F=NO","wxbv4k2zrs","2","76","78","75","","","","","","","","","","","","","","","",""
"null","audio/beep-329314.mp3","null","audio-keyboard-response","265","2.1.0","343126","J=YES, F=NO","wxbv4k2zrs","2","76","78","75","","","","","","","","","","","","","","","",""
"null","audio/age1.wav","null","audio-keyboard-response","266","2.1.0","343666","J=YES, F=NO","wxbv4k2zrs","2","76","78","75","","","","","","","","","","","","","","","",""
"655","
          <p id=""word"" style=""font-size: 40px;"">lachry</p>
          <p style=""font-size: 16px;"">J = YES &nbsp;&nbsp;&nbsp; F = NO</p>
        ","f","html-keyboard-response","267","2.1.0","344322","J=YES, F=NO","wxbv4k2zrs","2","76","78","75","","","","","","","","","lachry","age1","pseudoword","pseudoword","f","true","",""
"null","<p style=""font-size: 50px;"">+</p>","null","html-keyboard-response","268","2.1.0","344635","J=YES, F=NO","wxbv4k2zrs","2","76","78","75","","","","","","","","","","","","","","","",""
"null","audio/beep-329314.mp3","null","audio-keyboard-response","269","2.1.0","346167","J=YES, F=NO","wxbv4k2zrs","2","76","78","75","","","","","","","","","","","","","","","",""
"null","audio/cloud1.wav","null","audio-keyboard-response","270","2.1.0","346706","J=YES, F=NO","wxbv4k2zrs","2","76","78","75","","","","","","","","","","","","","","","",""
"910","
          <p id=""word"" style=""font-size: 40px;"">brotant</p>
          <p style=""font-size: 16px;"">J = YES &nbsp;&nbsp;&nbsp; F = NO</p>
        ","f","html-keyboard-response","271","2.1.0","347617","J=YES, F=NO","wxbv4k2zrs","2","76","78","75","","","","","","","","","brotant","cloud1","pseudoword","pseudoword","f","true","",""
"null","<p style=""font-size: 50px;"">+</p>","null","html-keyboard-response","272","2.1.0","347923","J=YES, F=NO","wxbv4k2zrs","2","76","78","75","","","","","","","","","","","","","","","",""
"null","audio/beep-329314.mp3","null","audio-keyboard-response","273","2.1.0","349446","J=YES, F=NO","wxbv4k2zrs","2","76","78","75","","","","","","","","","","","","","","","",""
"null","audio/heart1.wav","null","audio-keyboard-response","274","2.1.0","350066","J=YES, F=NO","wxbv4k2zrs","2","76","78","75","","","","","","","","","","","","","","","",""
"772","
          <p id=""word"" style=""font-size: 40px;"">dralm</p>
          <p style=""font-size: 16px;"">J = YES &nbsp;&nbsp;&nbsp; F = NO</p>
        ","f","html-keyboard-response","275","2.1.0","350839","J=YES, F=NO","wxbv4k2zrs","2","76","78","75","","","","","","","","","dralm","heart1","pseudoword","pseudoword","f","true","",""
"null","<p style=""font-size: 50px;"">+</p>","null","html-keyboard-response","276","2.1.0","351148","J=YES, F=NO","wxbv4k2zrs","2","76","78","75","","","","","","","","","","","","","","","",""
"null","audio/beep-329314.mp3","null","audio-keyboard-response","277","2.1.0","352686","J=YES, F=NO","wxbv4k2zrs","2","76","78","75","","","","","","","","","","","","","","","",""
"null","audio/handle.wav","null","audio-keyboard-response","278","2.1.0","353306","J=YES, F=NO","wxbv4k2zrs","2","76","78","75","","","","","","","","","","","","","","","",""
"597","
          <p id=""word"" style=""font-size: 40px;"">moutes</p>
          <p style=""font-size: 16px;"">J = YES &nbsp;&nbsp;&nbsp; F = NO</p>
        ","f","html-keyboard-response","279","2.1.0","353904","J=YES, F=NO","wxbv4k2zrs","2","76","78","75","","","","","","","","","moutes","handle","pseudoword","pseudoword","f","true","",""
"null","<p style=""font-size: 50px;"">+</p>","null","html-keyboard-response","280","2.1.0","354209","J=YES, F=NO","wxbv4k2zrs","2","76","78","75","","","","","","","","","","","","","","","",""
"null","audio/beep-329314.mp3","null","audio-keyboard-response","281","2.1.0","355746","J=YES, F=NO","wxbv4k2zrs","2","76","78","75","","","","","","","","","","","","","","","",""
"null","audio/account1.wav","null","audio-keyboard-response","282","2.1.0","356426","J=YES, F=NO","wxbv4k2zrs","2","76","78","75","","","","","","","","","","","","","","","",""
"793","
          <p id=""word"" style=""font-size: 40px;"">paint</p>
          <p style=""font-size: 16px;"">J = YES &nbsp;&nbsp;&nbsp; F = NO</p>
        ","j","html-keyboard-response","283","2.1.0","357220","J=YES, F=NO","wxbv4k2zrs","2","76","78","75","","","","","","","","","paint","account1","filler","filler","j","true","",""
"null","<p style=""font-size: 50px;"">+</p>","null","html-keyboard-response","284","2.1.0","357526","J=YES, F=NO","wxbv4k2zrs","2","76","78","75","","","","","","","","","","","","","","","",""
"null","audio/beep-329314.mp3","null","audio-keyboard-response","285","2.1.0","359066","J=YES, F=NO","wxbv4k2zrs","2","76","78","75","","","","","","","","","","","","","","","",""
"null","audio/holiday1.wav","null","audio-keyboard-response","286","2.1.0","359686","J=YES, F=NO","wxbv4k2zrs","2","76","78","75","","","","","","","","","","","","","","","",""
"640","
          <p id=""word"" style=""font-size: 40px;"">drivets</p>
          <p style=""font-size: 16px;"">J = YES &nbsp;&nbsp;&nbsp; F = NO</p>
        ","f","html-keyboard-response","287","2.1.0","360327","J=YES, F=NO","wxbv4k2zrs","2","76","78","75","","","","","","","","","drivets","holiday1","pseudoword","pseudoword","f","true","",""
"null","<p style=""font-size: 50px;"">+</p>","null","html-keyboard-response","288","2.1.0","360630","J=YES, F=NO","wxbv4k2zrs","2","76","78","75","","","","","","","","","","","","","","","",""
"null","audio/beep-329314.mp3","null","audio-keyboard-response","289","2.1.0","362166","J=YES, F=NO","wxbv4k2zrs","2","76","78","75","","","","","","","","","","","","","","","",""
"null","audio/floor.wav","null","audio-keyboard-response","290","2.1.0","362706","J=YES, F=NO","wxbv4k2zrs","2","76","78","75","","","","","","","","","","","","","","","",""
"1181","
          <p id=""word"" style=""font-size: 40px;"">mop</p>
          <p style=""font-size: 16px;"">J = YES &nbsp;&nbsp;&nbsp; F = NO</p>
        ","j","html-keyboard-response","291","2.1.0","363888","J=YES, F=NO","wxbv4k2zrs","2","76","78","75","","","","","","","","","mop","floor","filler","filler","j","true","",""
"null","<p style=""font-size: 50px;"">+</p>","null","html-keyboard-response","292","2.1.0","364194","J=YES, F=NO","wxbv4k2zrs","2","76","78","75","","","","","","","","","","","","","","","",""
"null","audio/beep-329314.mp3","null","audio-keyboard-response","293","2.1.0","365727","J=YES, F=NO","wxbv4k2zrs","2","76","78","75","","","","","","","","","","","","","","","",""
"null","audio/gift1.wav","null","audio-keyboard-response","294","2.1.0","366186","J=YES, F=NO","wxbv4k2zrs","2","76","78","75","","","","","","","","","","","","","","","",""
"780","
          <p id=""word"" style=""font-size: 40px;"">protsh</p>
          <p style=""font-size: 16px;"">J = YES &nbsp;&nbsp;&nbsp; F = NO</p>
        ","f","html-keyboard-response","295","2.1.0","366967","J=YES, F=NO","wxbv4k2zrs","2","76","78","75","","","","","","","","","protsh","gift1","pseudoword","pseudoword","f","true","",""
"1271","<p>Excellent! You have finished block 2 of 8.</p>
                     <p>Feel free to take a 30 second break.</p>
                     <p>Press any key when you're ready to continue.</p>","f","html-keyboard-response","296","2.1.0","368238","J=YES, F=NO","wxbv4k2zrs","2","76","78","75","","","","","","","","","","","","","","","",""
"1163","<p>Starting main block 3 of 8. Press any key to continue.</p>","j","html-keyboard-response","297","2.1.0","369401","J=YES, F=NO","wxbv4k2zrs","2","76","78","75","","","","","","","","","","","","","","","",""
"null","<p style=""font-size: 50px;"">+</p>","null","html-keyboard-response","298","2.1.0","369711","J=YES, F=NO","wxbv4k2zrs","2","76","78","75","","","","","","","","","","","","","","","",""
"null","audio/beep-329314.mp3","null","audio-keyboard-response","299","2.1.0","371247","J=YES, F=NO","wxbv4k2zrs","2","76","78","75","","","","","","","","","","","","","","","",""
"null","audio/mind.wav","null","audio-keyboard-response","300","2.1.0","371926","J=YES, F=NO","wxbv4k2zrs","2","76","78","75","","","","","","","","","","","","","","","",""
"906","
          <p id=""word"" style=""font-size: 40px;"">crainate</p>
          <p style=""font-size: 16px;"">J = YES &nbsp;&nbsp;&nbsp; F = NO</p>
        ","f","html-keyboard-response","301","2.1.0","372833","J=YES, F=NO","wxbv4k2zrs","2","76","78","75","","","","","","","","","crainate","mind","pseudoword","pseudoword","f","true","",""
"null","<p style=""font-size: 50px;"">+</p>","null","html-keyboard-response","302","2.1.0","373135","J=YES, F=NO","wxbv4k2zrs","2","76","78","75","","","","","","","","","","","","","","","",""
"null","audio/beep-329314.mp3","null","audio-keyboard-response","303","2.1.0","374666","J=YES, F=NO","wxbv4k2zrs","2","76","78","75","","","","","","","","","","","","","","","",""
"null","audio/sugar1.wav","null","audio-keyboard-response","304","2.1.0","375266","J=YES, F=NO","wxbv4k2zrs","2","76","78","75","","","","","","","","","","","","","","","",""
"917","
          <p id=""word"" style=""font-size: 40px;"">glung</p>
          <p style=""font-size: 16px;"">J = YES &nbsp;&nbsp;&nbsp; F = NO</p>
        ","f","html-keyboard-response","305","2.1.0","376184","J=YES, F=NO","wxbv4k2zrs","2","76","78","75","","","","","","","","","glung","sugar1","pseudoword","pseudoword","f","true","",""
"null","<p style=""font-size: 50px;"">+</p>","null","html-keyboard-response","306","2.1.0","376494","J=YES, F=NO","wxbv4k2zrs","2","76","78","75","","","","","","","","","","","","","","","",""
"null","audio/beep-329314.mp3","null","audio-keyboard-response","307","2.1.0","378026","J=YES, F=NO","wxbv4k2zrs","2","76","78","75","","","","","","","","","","","","","","","",""
"null","audio/church1.wav","null","audio-keyboard-response","308","2.1.0","378826","J=YES, F=NO","wxbv4k2zrs","2","76","78","75","","","","","","","","","","","","","","","",""
"933","
          <p id=""word"" style=""font-size: 40px;"">cover</p>
          <p style=""font-size: 16px;"">J = YES &nbsp;&nbsp;&nbsp; F = NO</p>
        ","j","html-keyboard-response","309","2.1.0","379760","J=YES, F=NO","wxbv4k2zrs","2","76","78","75","","","","","","","","","cover","church1","unrelated","experimental","j","true","",""
"null","<p style=""font-size: 50px;"">+</p>","null","html-keyboard-response","310","2.1.0","380072","J=YES, F=NO","wxbv4k2zrs","2","76","78","75","","","","","","","","","","","","","","","",""
"null","audio/beep-329314.mp3","null","audio-keyboard-response","311","2.1.0","381606","J=YES, F=NO","wxbv4k2zrs","2","76","78","75","","","","","","","","","","","","","","","",""
"null","audio/wealth1.wav","null","audio-keyboard-response","312","2.1.0","382186","J=YES, F=NO","wxbv4k2zrs","2","76","78","75","","","","","","","","","","","","","","","",""
"1124","
          <p id=""word"" style=""font-size: 40px;"">possess</p>
          <p style=""font-size: 16px;"">J = YES &nbsp;&nbsp;&nbsp; F = NO</p>
        ","j","html-keyboard-response","313","2.1.0","383311","J=YES, F=NO","wxbv4k2zrs","2","76","78","75","","","","","","","","","possess","wealth1","literal","experimental","j","true","",""
"null","<p style=""font-size: 50px;"">+</p>","null","html-keyboard-response","314","2.1.0","383625","J=YES, F=NO","wxbv4k2zrs","2","76","78","75","","","","","","","","","","","","","","","",""
"null","audio/beep-329314.mp3","null","audio-keyboard-response","315","2.1.0","385146","J=YES, F=NO","wxbv4k2zrs","2","76","78","75","","","","","","","","","","","","","","","",""
"null","audio/purpose.wav","null","audio-keyboard-response","316","2.1.0","385926","J=YES, F=NO","wxbv4k2zrs","2","76","78","75","","","","","","","","","","","","","","","",""
"641","
          <p id=""word"" style=""font-size: 40px;"">whigm</p>
          <p style=""font-size: 16px;"">J = YES &nbsp;&nbsp;&nbsp; F = NO</p>
        ","f","html-keyboard-response","317","2.1.0","386568","J=YES, F=NO","wxbv4k2zrs","2","76","78","75","","","","","","","","","whigm","purpose","pseudoword","pseudoword","f","true","",""
"null","<p style=""font-size: 50px;"">+</p>","null","html-keyboard-response","318","2.1.0","386873","J=YES, F=NO","wxbv4k2zrs","2","76","78","75","","","","","","","","","","","","","","","",""
"null","audio/beep-329314.mp3","null","audio-keyboard-response","319","2.1.0","388407","J=YES, F=NO","wxbv4k2zrs","2","76","78","75","","","","","","","","","","","","","","","",""
"null","audio/topic.wav","null","audio-keyboard-response","320","2.1.0","389086","J=YES, F=NO","wxbv4k2zrs","2","76","78","75","","","","","","","","","","","","","","","",""
"748","
          <p id=""word"" style=""font-size: 40px;"">approach</p>
          <p style=""font-size: 16px;"">J = YES &nbsp;&nbsp;&nbsp; F = NO</p>
        ","j","html-keyboard-response","321","2.1.0","389835","J=YES, F=NO","wxbv4k2zrs","2","76","78","75","","","","","","","","","approach","topic","metaphor","experimental","j","true","",""
"null","<p style=""font-size: 50px;"">+</p>","null","html-keyboard-response","322","2.1.0","390147","J=YES, F=NO","wxbv4k2zrs","2","76","78","75","","","","","","","","","","","","","","","",""
"null","audio/beep-329314.mp3","null","audio-keyboard-response","323","2.1.0","391686","J=YES, F=NO","wxbv4k2zrs","2","76","78","75","","","","","","","","","","","","","","","",""
"null","audio/voice.wav","null","audio-keyboard-response","324","2.1.0","392286","J=YES, F=NO","wxbv4k2zrs","2","76","78","75","","","","","","","","","","","","","","","",""
"1026","
          <p id=""word"" style=""font-size: 40px;"">flood</p>
          <p style=""font-size: 16px;"">J = YES &nbsp;&nbsp;&nbsp; F = NO</p>
        ","j","html-keyboard-response","325","2.1.0","393313","J=YES, F=NO","wxbv4k2zrs","2","76","78","75","","","","","","","","","flood","voice","unrelated","experimental","j","true","",""
"null","<p style=""font-size: 50px;"">+</p>","null","html-keyboard-response","326","2.1.0","393627","J=YES, F=NO","wxbv4k2zrs","2","76","78","75","","","","","","","","","","","","","","","",""
"null","audio/beep-329314.mp3","null","audio-keyboard-response","327","2.1.0","395166","J=YES, F=NO","wxbv4k2zrs","2","76","78","75","","","","","","","","","","","","","","","",""
"null","audio/cave1.wav","null","audio-keyboard-response","328","2.1.0","395706","J=YES, F=NO","wxbv4k2zrs","2","76","78","75","","","","","","","","","","","","","","","",""
"1027","
          <p id=""word"" style=""font-size: 40px;"">blacket</p>
          <p style=""font-size: 16px;"">J = YES &nbsp;&nbsp;&nbsp; F = NO</p>
        ","f","html-keyboard-response","329","2.1.0","396734","J=YES, F=NO","wxbv4k2zrs","2","76","78","75","","","","","","","","","blacket","cave1","pseudoword","pseudoword","f","true","",""
"null","<p style=""font-size: 50px;"">+</p>","null","html-keyboard-response","330","2.1.0","397047","J=YES, F=NO","wxbv4k2zrs","2","76","78","75","","","","","","","","","","","","","","","",""
"null","audio/beep-329314.mp3","null","audio-keyboard-response","331","2.1.0","398586","J=YES, F=NO","wxbv4k2zrs","2","76","78","75","","","","","","","","","","","","","","","",""
"null","audio/lion1.wav","null","audio-keyboard-response","332","2.1.0","399126","J=YES, F=NO","wxbv4k2zrs","2","76","78","75","","","","","","","","","","","","","","","",""
"812","
          <p id=""word"" style=""font-size: 40px;"">wrestle</p>
          <p style=""font-size: 16px;"">J = YES &nbsp;&nbsp;&nbsp; F = NO</p>
        ","j","html-keyboard-response","333","2.1.0","399939","J=YES, F=NO","wxbv4k2zrs","2","76","78","75","","","","","","","","","wrestle","lion1","literal","experimental","j","true","",""
"null","<p style=""font-size: 50px;"">+</p>","null","html-keyboard-response","334","2.1.0","400246","J=YES, F=NO","wxbv4k2zrs","2","76","78","75","","","","","","","","","","","","","","","",""
"null","audio/beep-329314.mp3","null","audio-keyboard-response","335","2.1.0","401786","J=YES, F=NO","wxbv4k2zrs","2","76","78","75","","","","","","","","","","","","","","","",""
"null","audio/account1.wav","null","audio-keyboard-response","336","2.1.0","402466","J=YES, F=NO","wxbv4k2zrs","2","76","78","75","","","","","","","","","","","","","","","",""
"662","
          <p id=""word"" style=""font-size: 40px;"">open</p>
          <p style=""font-size: 16px;"">J = YES &nbsp;&nbsp;&nbsp; F = NO</p>
        ","j","html-keyboard-response","337","2.1.0","403129","J=YES, F=NO","wxbv4k2zrs","2","76","78","75","","","","","","","","","open","account1","metaphor","experimental","j","true","",""
"null","<p style=""font-size: 50px;"">+</p>","null","html-keyboard-response","338","2.1.0","403443","J=YES, F=NO","wxbv4k2zrs","2","76","78","75","","","","","","","","","","","","","","","",""
"null","audio/beep-329314.mp3","null","audio-keyboard-response","339","2.1.0","404967","J=YES, F=NO","wxbv4k2zrs","2","76","78","75","","","","","","","","","","","","","","","",""
"null","audio/mood1.wav","null","audio-keyboard-response","340","2.1.0","405546","J=YES, F=NO","wxbv4k2zrs","2","76","78","75","","","","","","","","","","","","","","","",""
"null","
          <p id=""word"" style=""font-size: 40px;"">give</p>
          <p style=""font-size: 16px;"">J = YES &nbsp;&nbsp;&nbsp; F = NO</p>
        ","null","html-keyboard-response","341","2.1.0","407056","J=YES, F=NO","wxbv4k2zrs","2","76","78","75","","","","","","","","","give","mood1","unrelated","experimental","j","false","",""
"null","<p style=""font-size: 50px;"">+</p>","null","html-keyboard-response","342","2.1.0","407364","J=YES, F=NO","wxbv4k2zrs","2","76","78","75","","","","","","","","","","","","","","","",""
"null","audio/beep-329314.mp3","null","audio-keyboard-response","343","2.1.0","408886","J=YES, F=NO","wxbv4k2zrs","2","76","78","75","","","","","","","","","","","","","","","",""
"null","audio/menu.wav","null","audio-keyboard-response","344","2.1.0","409566","J=YES, F=NO","wxbv4k2zrs","2","76","78","75","","","","","","","","","","","","","","","",""
"619","
          <p id=""word"" style=""font-size: 40px;"">slice</p>
          <p style=""font-size: 16px;"">J = YES &nbsp;&nbsp;&nbsp; F = NO</p>
        ","j","html-keyboard-response","345","2.1.0","410186","J=YES, F=NO","wxbv4k2zrs","2","76","78","75","","","","","","","","","slice","menu","filler","filler","j","true","",""
"null","<p style=""font-size: 50px;"">+</p>","null","html-keyboard-response","346","2.1.0","410498","J=YES, F=NO","wxbv4k2zrs","2","76","78","75","","","","","","","","","","","","","","","",""
"null","audio/beep-329314.mp3","null","audio-keyboard-response","347","2.1.0","412026","J=YES, F=NO","wxbv4k2zrs","2","76","78","75","","","","","","","","","","","","","","","",""
"null","audio/tax1.wav","null","audio-keyboard-response","348","2.1.0","412626","J=YES, F=NO","wxbv4k2zrs","2","76","78","75","","","","","","","","","","","","","","","",""
"1341","
          <p id=""word"" style=""font-size: 40px;"">snate</p>
          <p style=""font-size: 16px;"">J = YES &nbsp;&nbsp;&nbsp; F = NO</p>
        ","f","html-keyboard-response","349","2.1.0","413968","J=YES, F=NO","wxbv4k2zrs","2","76","78","75","","","","","","","","","snate","tax1","pseudoword","pseudoword","f","true","",""
"null","<p style=""font-size: 50px;"">+</p>","null","html-keyboard-response","350","2.1.0","414271","J=YES, F=NO","wxbv4k2zrs","2","76","78","75","","","","","","","","","","","","","","","",""
"null","audio/beep-329314.mp3","null","audio-keyboard-response","351","2.1.0","415806","J=YES, F=NO","wxbv4k2zrs","2","76","78","75","","","","","","","","","","","","","","","",""
"null","audio/golf1.wav","null","audio-keyboard-response","352","2.1.0","416367","J=YES, F=NO","wxbv4k2zrs","2","76","78","75","","","","","","","","","","","","","","","",""
"657","
          <p id=""word"" style=""font-size: 40px;"">bury</p>
          <p style=""font-size: 16px;"">J = YES &nbsp;&nbsp;&nbsp; F = NO</p>
        ","j","html-keyboard-response","353","2.1.0","417025","J=YES, F=NO","wxbv4k2zrs","2","76","78","75","","","","","","","","","bury","golf1","unrelated","experimental","j","true","",""
"null","<p style=""font-size: 50px;"">+</p>","null","html-keyboard-response","354","2.1.0","417331","J=YES, F=NO","wxbv4k2zrs","2","76","78","75","","","","","","","","","","","","","","","",""
"null","audio/beep-329314.mp3","null","audio-keyboard-response","355","2.1.0","418866","J=YES, F=NO","wxbv4k2zrs","2","76","78","75","","","","","","","","","","","","","","","",""
"null","audio/test1.wav","null","audio-keyboard-response","356","2.1.0","419546","J=YES, F=NO","wxbv4k2zrs","2","76","78","75","","","","","","","","","","","","","","","",""
"648","
          <p id=""word"" style=""font-size: 40px;"">twopch</p>
          <p style=""font-size: 16px;"">J = YES &nbsp;&nbsp;&nbsp; F = NO</p>
        ","f","html-keyboard-response","357","2.1.0","420195","J=YES, F=NO","wxbv4k2zrs","2","76","78","75","","","","","","","","","twopch","test1","pseudoword","pseudoword","f","true","",""
"null","<p style=""font-size: 50px;"">+</p>","null","html-keyboard-response","358","2.1.0","420499","J=YES, F=NO","wxbv4k2zrs","2","76","78","75","","","","","","","","","","","","","","","",""
"null","audio/beep-329314.mp3","null","audio-keyboard-response","359","2.1.0","422026","J=YES, F=NO","wxbv4k2zrs","2","76","78","75","","","","","","","","","","","","","","","",""
"null","audio/mouth1.wav","null","audio-keyboard-response","360","2.1.0","422706","J=YES, F=NO","wxbv4k2zrs","2","76","78","75","","","","","","","","","","","","","","","",""
"692","
          <p id=""word"" style=""font-size: 40px;"">close</p>
          <p style=""font-size: 16px;"">J = YES &nbsp;&nbsp;&nbsp; F = NO</p>
        ","j","html-keyboard-response","361","2.1.0","423399","J=YES, F=NO","wxbv4k2zrs","2","76","78","75","","","","","","","","","close","mouth1","literal","experimental","j","true","",""
"1230","<p>Excellent! You have finished block 3 of 8.</p>
                     <p>Feel free to take a 30 second break.</p>
                     <p>Press any key when you're ready to continue.</p>","f","html-keyboard-response","362","2.1.0","424629","J=YES, F=NO","wxbv4k2zrs","2","76","78","75","","","","","","","","","","","","","","","",""
"973","<p>Starting main block 4 of 8. Press any key to continue.</p>","j","html-keyboard-response","363","2.1.0","425602","J=YES, F=NO","wxbv4k2zrs","2","76","78","75","","","","","","","","","","","","","","","",""
"null","<p style=""font-size: 50px;"">+</p>","null","html-keyboard-response","364","2.1.0","425912","J=YES, F=NO","wxbv4k2zrs","2","76","78","75","","","","","","","","","","","","","","","",""
"null","audio/beep-329314.mp3","null","audio-keyboard-response","365","2.1.0","427446","J=YES, F=NO","wxbv4k2zrs","2","76","78","75","","","","","","","","","","","","","","","",""
"null","audio/fortune1.wav","null","audio-keyboard-response","366","2.1.0","428226","J=YES, F=NO","wxbv4k2zrs","2","76","78","75","","","","","","","","","","","","","","","",""
"594","
          <p id=""word"" style=""font-size: 40px;"">spend</p>
          <p style=""font-size: 16px;"">J = YES &nbsp;&nbsp;&nbsp; F = NO</p>
        ","j","html-keyboard-response","367","2.1.0","428821","J=YES, F=NO","wxbv4k2zrs","2","76","78","75","","","","","","","","","spend","fortune1","literal","experimental","j","true","",""
"null","<p style=""font-size: 50px;"">+</p>","null","html-keyboard-response","368","2.1.0","429124","J=YES, F=NO","wxbv4k2zrs","2","76","78","75","","","","","","","","","","","","","","","",""
"null","audio/beep-329314.mp3","null","audio-keyboard-response","369","2.1.0","430647","J=YES, F=NO","wxbv4k2zrs","2","76","78","75","","","","","","","","","","","","","","","",""
"null","audio/burden.wav","null","audio-keyboard-response","370","2.1.0","431146","J=YES, F=NO","wxbv4k2zrs","2","76","78","75","","","","","","","","","","","","","","","",""
"916","
          <p id=""word"" style=""font-size: 40px;"">whotth</p>
          <p style=""font-size: 16px;"">J = YES &nbsp;&nbsp;&nbsp; F = NO</p>
        ","f","html-keyboard-response","371","2.1.0","432063","J=YES, F=NO","wxbv4k2zrs","2","76","78","75","","","","","","","","","whotth","burden","pseudoword","pseudoword","f","true","",""
"null","<p style=""font-size: 50px;"">+</p>","null","html-keyboard-response","372","2.1.0","432369","J=YES, F=NO","wxbv4k2zrs","2","76","78","75","","","","","","","","","","","","","","","",""
"null","audio/beep-329314.mp3","null","audio-keyboard-response","373","2.1.0","433906","J=YES, F=NO","wxbv4k2zrs","2","76","78","75","","","","","","","","","","","","","","","",""
"null","audio/pine.wav","null","audio-keyboard-response","374","2.1.0","434406","J=YES, F=NO","wxbv4k2zrs","2","76","78","75","","","","","","","","","","","","","","","",""
"689","
          <p id=""word"" style=""font-size: 40px;"">crebble</p>
          <p style=""font-size: 16px;"">J = YES &nbsp;&nbsp;&nbsp; F = NO</p>
        ","f","html-keyboard-response","375","2.1.0","435096","J=YES, F=NO","wxbv4k2zrs","2","76","78","75","","","","","","","","","crebble","pine","pseudoword","pseudoword","f","true","",""
"null","<p style=""font-size: 50px;"">+</p>","null","html-keyboard-response","376","2.1.0","435399","J=YES, F=NO","wxbv4k2zrs","2","76","78","75","","","","","","","","","","","","","","","",""
"null","audio/beep-329314.mp3","null","audio-keyboard-response","377","2.1.0","436926","J=YES, F=NO","wxbv4k2zrs","2","76","78","75","","","","","","","","","","","","","","","",""
"null","audio/uncle1.wav","null","audio-keyboard-response","378","2.1.0","437426","J=YES, F=NO","wxbv4k2zrs","2","76","78","75","","","","","","","","","","","","","","","",""
"727","
          <p id=""word"" style=""font-size: 40px;"">dramble</p>
          <p style=""font-size: 16px;"">J = YES &nbsp;&nbsp;&nbsp; F = NO</p>
        ","f","html-keyboard-response","379","2.1.0","438154","J=YES, F=NO","wxbv4k2zrs","2","76","78","75","","","","","","","","","dramble","uncle1","pseudoword","pseudoword","f","true","",""
"null","<p style=""font-size: 50px;"">+</p>","null","html-keyboard-response","380","2.1.0","438456","J=YES, F=NO","wxbv4k2zrs","2","76","78","75","","","","","","","","","","","","","","","",""
"null","audio/beep-329314.mp3","null","audio-keyboard-response","381","2.1.0","439986","J=YES, F=NO","wxbv4k2zrs","2","76","78","75","","","","","","","","","","","","","","","",""
"null","audio/pain1.wav","null","audio-keyboard-response","382","2.1.0","440426","J=YES, F=NO","wxbv4k2zrs","2","76","78","75","","","","","","","","","","","","","","","",""
"731","
          <p id=""word"" style=""font-size: 40px;"">sell</p>
          <p style=""font-size: 16px;"">J = YES &nbsp;&nbsp;&nbsp; F = NO</p>
        ","j","html-keyboard-response","383","2.1.0","441158","J=YES, F=NO","wxbv4k2zrs","2","76","78","75","","","","","","","","","sell","pain1","unrelated","experimental","j","true","",""
"null","<p style=""font-size: 50px;"">+</p>","null","html-keyboard-response","384","2.1.0","441466","J=YES, F=NO","wxbv4k2zrs","2","76","78","75","","","","","","","","","","","","","","","",""
"null","audio/beep-329314.mp3","null","audio-keyboard-response","385","2.1.0","443007","J=YES, F=NO","wxbv4k2zrs","2","76","78","75","","","","","","","","","","","","","","","",""
"null","audio/bishop1.wav","null","audio-keyboard-response","386","2.1.0","443586","J=YES, F=NO","wxbv4k2zrs","2","76","78","75","","","","","","","","","","","","","","","",""
"1434","
          <p id=""word"" style=""font-size: 40px;"">devour</p>
          <p style=""font-size: 16px;"">J = YES &nbsp;&nbsp;&nbsp; F = NO</p>
        ","f","html-keyboard-response","387","2.1.0","445021","J=YES, F=NO","wxbv4k2zrs","2","76","78","75","","","","","","","","","devour","bishop1","unrelated","experimental","j","false","",""
"null","<p style=""font-size: 50px;"">+</p>","null","html-keyboard-response","388","2.1.0","445336","J=YES, F=NO","wxbv4k2zrs","2","76","78","75","","","","","","","","","","","","","","","",""
"null","audio/beep-329314.mp3","null","audio-keyboard-response","389","2.1.0","446866","J=YES, F=NO","wxbv4k2zrs","2","76","78","75","","","","","","","","","","","","","","","",""
"null","audio/gossip1.wav","null","audio-keyboard-response","390","2.1.0","447506","J=YES, F=NO","wxbv4k2zrs","2","76","78","75","","","","","","","","","","","","","","","",""
"862","
          <p id=""word"" style=""font-size: 40px;"">camerish</p>
          <p style=""font-size: 16px;"">J = YES &nbsp;&nbsp;&nbsp; F = NO</p>
        ","f","html-keyboard-response","391","2.1.0","448369","J=YES, F=NO","wxbv4k2zrs","2","76","78","75","","","","","","","","","camerish","gossip1","pseudoword","pseudoword","f","true","",""
