"rt","stimulus","response","trial_type","trial_index","plugin_version","time_elapsed","response_mapping","subject_id","list_index","lextale_score","lextale_word_score","lextale_nonword_score","success","timeout","failed_images","failed_audio","failed_video","task","isWord","isDummy","target","prime","prime_type","stimulus_type","correct_response","correct","section","question_order"
"6696","
    <div style=""max-width: 800px; margin: auto; text-align: left;"">
      <h2>STANFORD UNIVERSITY</h2>
      <h3>Research Information Sheet</h3>
      <p><strong>Protocol Director:</strong> Robert Hawkins<br>
      <strong>Protocol Title:</strong> Communication and social cognition in natural audiovisual contexts<br>
      <strong>IRB#:</strong> 77226</p>

      <p><strong>DESCRIPTION:</strong> You are invited to participate in a research study about language and communication. The purpose of the research is to understand how you interact and communicate with other people in naturalistic settings as a fluent English speaker. This research will be conducted through the Prolific platform, including participants from the US, UK, and Canada. If you decide to participate in this research, you will play a communication game in a group with one or more partners.</p>

      <p><strong>TIME INVOLVEMENT:</strong> The task will last the amount of time advertised on Prolific. You are free to withdraw from the study at any time.</p>

      <p><strong>RISKS AND BENEFITS:</strong> You may become frustrated if your partner gets distracted, or experience discomfort if other participants in your group send text that is inappropriate for the task. We ask you to please be respectful of other participants you might be interacting with to mitigate these risks. You may also experience discomfort when being asked to discuss or challenge emotionally salient political beliefs. Study data will be stored securely, in compliance with Stanford University standards, minimizing the risk of confidentiality breach. This study advances our scientific understanding of how people communicate and collaborate in naturalistic settings. This study may lead to further insights about what can go wrong in teamwork, suggest potential interventions to overcome these barriers, and help to develop assistive technologies that collaborate with human partners. We cannot and do not guarantee or promise that you will receive any benefits from this study.</p>

      <p><strong>PAYMENTS:</strong> You will receive payment in the amount advertised on Prolific. If you do not complete this study, you will receive prorated payment based on the time that you have spent. Additionally, you may be eligible for bonus payments as described in the instructions.</p>

      <p><strong>PARTICIPANT’S RIGHTS:</strong> If you have read this form and have decided to participate in this project, please understand your participation is voluntary and you have the right to withdraw your consent or discontinue participation at any time without penalty or loss of benefits to which you are otherwise entitled. The alternative is not to participate. You have the right to refuse to answer particular questions. The results of this research study may be presented at scientific or professional meetings or published in scientific journals. Your individual privacy will be maintained in all published and written data resulting from the study. In accordance with scientific norms, the data from this study may be used or shared with other researchers for future research (after removing personally identifying information) without additional consent from you.</p>

      <p><strong>CONTACT INFORMATION:</strong><br>
      Questions: If you have any questions, concerns or complaints about this research, its procedures, risks and benefits, contact the Protocol Director, Robert Hawkins (<a href=""mailto:rdhawkins@stanford.edu"">rdhawkins@stanford.edu</a>, 217-549-6923).<br>
      Independent Contact: If you are not satisfied with how this study is being conducted, or if you have any concerns, complaints, or general questions about the research or your rights as a participant, please contact the Stanford Institutional Review Board (IRB) to speak to someone independent of the research team at 650-723-2480 or toll free at 1-866-680-2906, or email at <a href=""mailto:irbnon-med@stanford.edu"">irbnon-med@stanford.edu</a>. You can also write to the Stanford IRB, Stanford University, 1705 El Camino Real, Palo Alto, CA 94306.</p>

      <p><strong>Please save or print a copy of this page for your records.</strong></p>
      <p>If you agree to participate in this research, click ""Continue"" below.</p>
    </div>
  ","0","html-button-response","0","2.1.0","6703","J=YES, F=NO","wz5fcnm3aj","1","70","70","70","","","","","","","","","","","","","","","",""
"13379","
    <div style=""max-width: 800px; margin: auto; text-align: left;"">
      <h2>Welcome!</h2>
      <p>Thank you for participating in this study. The experiment consists of three parts:</p>
      <ol>
        <li>An English vocabulary test</li>
        <li>A main task in which you will hear and see words, and decide whether the written word is a real English word</li>
        <li>A brief survey about your background</li>
      </ol>
      <p>Each part will be introduced before it begins.</p>
      <p>Please make sure you are in a quiet environment and can hear audio clearly for the final task.</p>
      <p style=""margin-top: 2em;"">Press any key to begin.</p>
    </div>
  "," ","html-keyboard-response","1","2.1.0","20084","J=YES, F=NO","wz5fcnm3aj","1","70","70","70","","","","","","","","","","","","","","","",""
"","","","preload","2","2.1.0","20914","J=YES, F=NO","wz5fcnm3aj","1","70","70","70","true","false","[]","[]","[]","","","","","","","","","","",""
"4929","
    <div style=""max-width: 800px; margin: auto; text-align: left;"">
      <h2>Part 1: Vocabulary Test</h2>
      <p>You will now complete the first part of the study: a short English vocabulary test.</p>
      <p>This test is called <strong>LexTALE</strong> and helps us get a general sense of your English proficiency.</p>
      <p style=""margin-top: 2em;"">Press any key to continue.</p>
    </div>
  "," ","html-keyboard-response","3","2.1.0","25844","J=YES, F=NO","wz5fcnm3aj","1","70","70","70","","","","","","","","","","","","","","","",""
"7759","
    <div style=""max-width: 800px; margin: auto; text-align: left;"">
      <h2>LexTALE Vocabulary Test</h2>
      <p>In this test, you will see a series of letter strings—one at a time.</p>
      <p>Your task is to decide whether each string is a real English word.</p>
      <p><strong>Key responses:</strong></p>
      <ul>
        <li><strong>J</strong> = YES (real English word)</li>
        <li><strong>F</strong> = NO (not a real English word)</li>
      </ul>
      <p>There is no time limit, but please try to be accurate.</p>
      <p style=""margin-top: 2em;"">Press any key to begin.</p>
    </div>
  "," ","html-keyboard-response","4","2.1.0","33605","J=YES, F=NO","wz5fcnm3aj","1","70","70","70","","","","","","","","","","","","","","","",""
"7405","
  <p style=""font-size: 40px;"">platery</p>
  <p style=""font-size: 16px;"">J = YES &nbsp;&nbsp;&nbsp; F = NO</p>
","f","html-keyboard-response","5","2.1.0","41013","J=YES, F=NO","wz5fcnm3aj","1","70","70","70","","","","","","lextale","false","true","","","","","","","",""
"1828","
  <p style=""font-size: 40px;"">denial</p>
  <p style=""font-size: 16px;"">J = YES &nbsp;&nbsp;&nbsp; F = NO</p>
","f","html-keyboard-response","6","2.1.0","42842","J=YES, F=NO","wz5fcnm3aj","1","70","70","70","","","","","","lextale","true","true","","","","","","","",""
"2792","
  <p style=""font-size: 40px;"">marrit</p>
  <p style=""font-size: 16px;"">J = YES &nbsp;&nbsp;&nbsp; F = NO</p>
","f","html-keyboard-response","7","2.1.0","45635","J=YES, F=NO","wz5fcnm3aj","1","70","70","70","","","","","","lextale","false","true","","","","","","","",""
"2040","
  <p style=""font-size: 40px;"">bottle</p>
  <p style=""font-size: 16px;"">J = YES &nbsp;&nbsp;&nbsp; F = NO</p>
","j","html-keyboard-response","8","2.1.0","47676","J=YES, F=NO","wz5fcnm3aj","1","70","70","70","","","","","","lextale","true","false","","","","","","","",""
"1670","
  <p style=""font-size: 40px;"">birst</p>
  <p style=""font-size: 16px;"">J = YES &nbsp;&nbsp;&nbsp; F = NO</p>
","f","html-keyboard-response","9","2.1.0","49348","J=YES, F=NO","wz5fcnm3aj","1","70","70","70","","","","","","lextale","false","false","","","","","","","",""
"3125","
  <p style=""font-size: 40px;"">envy</p>
  <p style=""font-size: 16px;"">J = YES &nbsp;&nbsp;&nbsp; F = NO</p>
","j","html-keyboard-response","10","2.1.0","52475","J=YES, F=NO","wz5fcnm3aj","1","70","70","70","","","","","","lextale","true","false","","","","","","","",""
"1368","
  <p style=""font-size: 40px;"">brang</p>
  <p style=""font-size: 16px;"">J = YES &nbsp;&nbsp;&nbsp; F = NO</p>
","f","html-keyboard-response","11","2.1.0","53844","J=YES, F=NO","wz5fcnm3aj","1","70","70","70","","","","","","lextale","false","false","","","","","","","",""
"1078","
  <p style=""font-size: 40px;"">huge</p>
  <p style=""font-size: 16px;"">J = YES &nbsp;&nbsp;&nbsp; F = NO</p>
","j","html-keyboard-response","12","2.1.0","54924","J=YES, F=NO","wz5fcnm3aj","1","70","70","70","","","","","","lextale","true","false","","","","","","","",""
"1422","
  <p style=""font-size: 40px;"">plove</p>
  <p style=""font-size: 16px;"">J = YES &nbsp;&nbsp;&nbsp; F = NO</p>
","f","html-keyboard-response","13","2.1.0","56348","J=YES, F=NO","wz5fcnm3aj","1","70","70","70","","","","","","lextale","false","false","","","","","","","",""
"1446","
  <p style=""font-size: 40px;"">border</p>
  <p style=""font-size: 16px;"">J = YES &nbsp;&nbsp;&nbsp; F = NO</p>
","j","html-keyboard-response","14","2.1.0","57796","J=YES, F=NO","wz5fcnm3aj","1","70","70","70","","","","","","lextale","true","false","","","","","","","",""
"2078","
  <p style=""font-size: 40px;"">flimsy</p>
  <p style=""font-size: 16px;"">J = YES &nbsp;&nbsp;&nbsp; F = NO</p>
","j","html-keyboard-response","15","2.1.0","59876","J=YES, F=NO","wz5fcnm3aj","1","70","70","70","","","","","","lextale","true","false","","","","","","","",""
"966","
  <p style=""font-size: 40px;"">drain</p>
  <p style=""font-size: 16px;"">J = YES &nbsp;&nbsp;&nbsp; F = NO</p>
","j","html-keyboard-response","16","2.1.0","60844","J=YES, F=NO","wz5fcnm3aj","1","70","70","70","","","","","","lextale","true","false","","","","","","","",""
"1222","
  <p style=""font-size: 40px;"">twindle</p>
  <p style=""font-size: 16px;"">J = YES &nbsp;&nbsp;&nbsp; F = NO</p>
","f","html-keyboard-response","17","2.1.0","62068","J=YES, F=NO","wz5fcnm3aj","1","70","70","70","","","","","","lextale","false","false","","","","","","","",""
"1542","
  <p style=""font-size: 40px;"">propose</p>
  <p style=""font-size: 16px;"">J = YES &nbsp;&nbsp;&nbsp; F = NO</p>
","j","html-keyboard-response","18","2.1.0","63612","J=YES, F=NO","wz5fcnm3aj","1","70","70","70","","","","","","lextale","true","false","","","","","","","",""
"1413","
  <p style=""font-size: 40px;"">forlay</p>
  <p style=""font-size: 16px;"">J = YES &nbsp;&nbsp;&nbsp; F = NO</p>
","j","html-keyboard-response","19","2.1.0","65027","J=YES, F=NO","wz5fcnm3aj","1","70","70","70","","","","","","lextale","false","false","","","","","","","",""
"2345","
  <p style=""font-size: 40px;"">tenant</p>
  <p style=""font-size: 16px;"">J = YES &nbsp;&nbsp;&nbsp; F = NO</p>
","f","html-keyboard-response","20","2.1.0","67372","J=YES, F=NO","wz5fcnm3aj","1","70","70","70","","","","","","lextale","true","false","","","","","","","",""
"1318","
  <p style=""font-size: 40px;"">strain</p>
  <p style=""font-size: 16px;"">J = YES &nbsp;&nbsp;&nbsp; F = NO</p>
","j","html-keyboard-response","21","2.1.0","68692","J=YES, F=NO","wz5fcnm3aj","1","70","70","70","","","","","","lextale","true","false","","","","","","","",""
"1494","
  <p style=""font-size: 40px;"">holster</p>
  <p style=""font-size: 16px;"">J = YES &nbsp;&nbsp;&nbsp; F = NO</p>
","j","html-keyboard-response","22","2.1.0","70188","J=YES, F=NO","wz5fcnm3aj","1","70","70","70","","","","","","lextale","true","false","","","","","","","",""
"1023","
  <p style=""font-size: 40px;"">hinder</p>
  <p style=""font-size: 16px;"">J = YES &nbsp;&nbsp;&nbsp; F = NO</p>
","j","html-keyboard-response","23","2.1.0","71212","J=YES, F=NO","wz5fcnm3aj","1","70","70","70","","","","","","lextale","true","false","","","","","","","",""
"1678","
  <p style=""font-size: 40px;"">swindle</p>
  <p style=""font-size: 16px;"">J = YES &nbsp;&nbsp;&nbsp; F = NO</p>
","f","html-keyboard-response","24","2.1.0","72891","J=YES, F=NO","wz5fcnm3aj","1","70","70","70","","","","","","lextale","true","false","","","","","","","",""
"2527","
  <p style=""font-size: 40px;"">nuder</p>
  <p style=""font-size: 16px;"">J = YES &nbsp;&nbsp;&nbsp; F = NO</p>
","f","html-keyboard-response","25","2.1.0","75419","J=YES, F=NO","wz5fcnm3aj","1","70","70","70","","","","","","lextale","false","false","","","","","","","",""
"1624","
  <p style=""font-size: 40px;"">pillow</p>
  <p style=""font-size: 16px;"">J = YES &nbsp;&nbsp;&nbsp; F = NO</p>
","j","html-keyboard-response","26","2.1.0","77044","J=YES, F=NO","wz5fcnm3aj","1","70","70","70","","","","","","lextale","true","false","","","","","","","",""
"1406","
  <p style=""font-size: 40px;"">shumble</p>
  <p style=""font-size: 16px;"">J = YES &nbsp;&nbsp;&nbsp; F = NO</p>
","f","html-keyboard-response","27","2.1.0","78452","J=YES, F=NO","wz5fcnm3aj","1","70","70","70","","","","","","lextale","false","false","","","","","","","",""
"1374","
  <p style=""font-size: 40px;"">thirst</p>
  <p style=""font-size: 16px;"">J = YES &nbsp;&nbsp;&nbsp; F = NO</p>
","j","html-keyboard-response","28","2.1.0","79828","J=YES, F=NO","wz5fcnm3aj","1","70","70","70","","","","","","lextale","true","false","","","","","","","",""
"1742","
  <p style=""font-size: 40px;"">unsail</p>
  <p style=""font-size: 16px;"">J = YES &nbsp;&nbsp;&nbsp; F = NO</p>
","j","html-keyboard-response","29","2.1.0","81572","J=YES, F=NO","wz5fcnm3aj","1","70","70","70","","","","","","lextale","false","false","","","","","","","",""
"990","
  <p style=""font-size: 40px;"">rifle</p>
  <p style=""font-size: 16px;"">J = YES &nbsp;&nbsp;&nbsp; F = NO</p>
","j","html-keyboard-response","30","2.1.0","82564","J=YES, F=NO","wz5fcnm3aj","1","70","70","70","","","","","","lextale","true","false","","","","","","","",""
"1382","
  <p style=""font-size: 40px;"">mush</p>
  <p style=""font-size: 16px;"">J = YES &nbsp;&nbsp;&nbsp; F = NO</p>
","f","html-keyboard-response","31","2.1.0","83947","J=YES, F=NO","wz5fcnm3aj","1","70","70","70","","","","","","lextale","false","false","","","","","","","",""
"1536","
  <p style=""font-size: 40px;"">drench</p>
  <p style=""font-size: 16px;"">J = YES &nbsp;&nbsp;&nbsp; F = NO</p>
","f","html-keyboard-response","32","2.1.0","85484","J=YES, F=NO","wz5fcnm3aj","1","70","70","70","","","","","","lextale","true","false","","","","","","","",""
"1909","
  <p style=""font-size: 40px;"">snirt</p>
  <p style=""font-size: 16px;"">J = YES &nbsp;&nbsp;&nbsp; F = NO</p>
","j","html-keyboard-response","33","2.1.0","87395","J=YES, F=NO","wz5fcnm3aj","1","70","70","70","","","","","","lextale","false","false","","","","","","","",""
"1224","
  <p style=""font-size: 40px;"">bitter</p>
  <p style=""font-size: 16px;"">J = YES &nbsp;&nbsp;&nbsp; F = NO</p>
","j","html-keyboard-response","34","2.1.0","88619","J=YES, F=NO","wz5fcnm3aj","1","70","70","70","","","","","","lextale","true","false","","","","","","","",""
"1175","
  <p style=""font-size: 40px;"">pliff</p>
  <p style=""font-size: 16px;"">J = YES &nbsp;&nbsp;&nbsp; F = NO</p>
","f","html-keyboard-response","35","2.1.0","89795","J=YES, F=NO","wz5fcnm3aj","1","70","70","70","","","","","","lextale","false","false","","","","","","","",""
"1279","
  <p style=""font-size: 40px;"">tablet</p>
  <p style=""font-size: 16px;"">J = YES &nbsp;&nbsp;&nbsp; F = NO</p>
","j","html-keyboard-response","36","2.1.0","91074","J=YES, F=NO","wz5fcnm3aj","1","70","70","70","","","","","","lextale","true","false","","","","","","","",""
"1352","
  <p style=""font-size: 40px;"">glimmer</p>
  <p style=""font-size: 16px;"">J = YES &nbsp;&nbsp;&nbsp; F = NO</p>
","j","html-keyboard-response","37","2.1.0","92426","J=YES, F=NO","wz5fcnm3aj","1","70","70","70","","","","","","lextale","true","false","","","","","","","",""
"1720","
  <p style=""font-size: 40px;"">slink</p>
  <p style=""font-size: 16px;"">J = YES &nbsp;&nbsp;&nbsp; F = NO</p>
","f","html-keyboard-response","38","2.1.0","94147","J=YES, F=NO","wz5fcnm3aj","1","70","70","70","","","","","","lextale","true","false","","","","","","","",""
"1055","
  <p style=""font-size: 40px;"">clever</p>
  <p style=""font-size: 16px;"">J = YES &nbsp;&nbsp;&nbsp; F = NO</p>
","j","html-keyboard-response","39","2.1.0","95202","J=YES, F=NO","wz5fcnm3aj","1","70","70","70","","","","","","lextale","true","false","","","","","","","",""
"1400","
  <p style=""font-size: 40px;"">grum</p>
  <p style=""font-size: 16px;"">J = YES &nbsp;&nbsp;&nbsp; F = NO</p>
","f","html-keyboard-response","40","2.1.0","96602","J=YES, F=NO","wz5fcnm3aj","1","70","70","70","","","","","","lextale","false","false","","","","","","","",""
"1160","
  <p style=""font-size: 40px;"">string</p>
  <p style=""font-size: 16px;"">J = YES &nbsp;&nbsp;&nbsp; F = NO</p>
","j","html-keyboard-response","41","2.1.0","97763","J=YES, F=NO","wz5fcnm3aj","1","70","70","70","","","","","","lextale","true","false","","","","","","","",""
"1664","
  <p style=""font-size: 40px;"">plim</p>
  <p style=""font-size: 16px;"">J = YES &nbsp;&nbsp;&nbsp; F = NO</p>
","f","html-keyboard-response","42","2.1.0","99427","J=YES, F=NO","wz5fcnm3aj","1","70","70","70","","","","","","lextale","false","false","","","","","","","",""
"951","
  <p style=""font-size: 40px;"">cable</p>
  <p style=""font-size: 16px;"">J = YES &nbsp;&nbsp;&nbsp; F = NO</p>
","j","html-keyboard-response","43","2.1.0","100378","J=YES, F=NO","wz5fcnm3aj","1","70","70","70","","","","","","lextale","true","false","","","","","","","",""
"1480","
  <p style=""font-size: 40px;"">shrivel</p>
  <p style=""font-size: 16px;"">J = YES &nbsp;&nbsp;&nbsp; F = NO</p>
","f","html-keyboard-response","44","2.1.0","101858","J=YES, F=NO","wz5fcnm3aj","1","70","70","70","","","","","","lextale","true","false","","","","","","","",""
"1248","
  <p style=""font-size: 40px;"">tarnish</p>
  <p style=""font-size: 16px;"">J = YES &nbsp;&nbsp;&nbsp; F = NO</p>
","j","html-keyboard-response","45","2.1.0","103107","J=YES, F=NO","wz5fcnm3aj","1","70","70","70","","","","","","lextale","true","false","","","","","","","",""
"1337","
  <p style=""font-size: 40px;"">blim</p>
  <p style=""font-size: 16px;"">J = YES &nbsp;&nbsp;&nbsp; F = NO</p>
","f","html-keyboard-response","46","2.1.0","104444","J=YES, F=NO","wz5fcnm3aj","1","70","70","70","","","","","","lextale","false","false","","","","","","","",""
"1757","
  <p style=""font-size: 40px;"">stifle</p>
  <p style=""font-size: 16px;"">J = YES &nbsp;&nbsp;&nbsp; F = NO</p>
","j","html-keyboard-response","47","2.1.0","106202","J=YES, F=NO","wz5fcnm3aj","1","70","70","70","","","","","","lextale","true","false","","","","","","","",""
"1128","
  <p style=""font-size: 40px;"">bint</p>
  <p style=""font-size: 16px;"">J = YES &nbsp;&nbsp;&nbsp; F = NO</p>
","f","html-keyboard-response","48","2.1.0","107330","J=YES, F=NO","wz5fcnm3aj","1","70","70","70","","","","","","lextale","false","false","","","","","","","",""
"1296","
  <p style=""font-size: 40px;"">purple</p>
  <p style=""font-size: 16px;"">J = YES &nbsp;&nbsp;&nbsp; F = NO</p>
","j","html-keyboard-response","49","2.1.0","108626","J=YES, F=NO","wz5fcnm3aj","1","70","70","70","","","","","","lextale","true","false","","","","","","","",""
"1216","
  <p style=""font-size: 40px;"">wriggle</p>
  <p style=""font-size: 16px;"">J = YES &nbsp;&nbsp;&nbsp; F = NO</p>
","j","html-keyboard-response","50","2.1.0","109843","J=YES, F=NO","wz5fcnm3aj","1","70","70","70","","","","","","lextale","true","false","","","","","","","",""
"1320","
  <p style=""font-size: 40px;"">mangle</p>
  <p style=""font-size: 16px;"">J = YES &nbsp;&nbsp;&nbsp; F = NO</p>
","f","html-keyboard-response","51","2.1.0","111164","J=YES, F=NO","wz5fcnm3aj","1","70","70","70","","","","","","lextale","true","false","","","","","","","",""
"1029","
  <p style=""font-size: 40px;"">shramp</p>
  <p style=""font-size: 16px;"">J = YES &nbsp;&nbsp;&nbsp; F = NO</p>
","j","html-keyboard-response","52","2.1.0","112194","J=YES, F=NO","wz5fcnm3aj","1","70","70","70","","","","","","lextale","false","false","","","","","","","",""
"1472","
  <p style=""font-size: 40px;"">flirt</p>
  <p style=""font-size: 16px;"">J = YES &nbsp;&nbsp;&nbsp; F = NO</p>
","j","html-keyboard-response","53","2.1.0","113667","J=YES, F=NO","wz5fcnm3aj","1","70","70","70","","","","","","lextale","true","false","","","","","","","",""
"1184","
  <p style=""font-size: 40px;"">frip</p>
  <p style=""font-size: 16px;"">J = YES &nbsp;&nbsp;&nbsp; F = NO</p>
","f","html-keyboard-response","54","2.1.0","114851","J=YES, F=NO","wz5fcnm3aj","1","70","70","70","","","","","","lextale","false","false","","","","","","","",""
"1031","
  <p style=""font-size: 40px;"">tangle</p>
  <p style=""font-size: 16px;"">J = YES &nbsp;&nbsp;&nbsp; F = NO</p>
","j","html-keyboard-response","55","2.1.0","115882","J=YES, F=NO","wz5fcnm3aj","1","70","70","70","","","","","","lextale","true","false","","","","","","","",""
"1120","
  <p style=""font-size: 40px;"">crumble</p>
  <p style=""font-size: 16px;"">J = YES &nbsp;&nbsp;&nbsp; F = NO</p>
","j","html-keyboard-response","56","2.1.0","117002","J=YES, F=NO","wz5fcnm3aj","1","70","70","70","","","","","","lextale","true","false","","","","","","","",""
"1688","
  <p style=""font-size: 40px;"">wrinkle</p>
  <p style=""font-size: 16px;"">J = YES &nbsp;&nbsp;&nbsp; F = NO</p>
","j","html-keyboard-response","57","2.1.0","118691","J=YES, F=NO","wz5fcnm3aj","1","70","70","70","","","","","","lextale","true","false","","","","","","","",""
"1048","
  <p style=""font-size: 40px;"">slumb</p>
  <p style=""font-size: 16px;"">J = YES &nbsp;&nbsp;&nbsp; F = NO</p>
","f","html-keyboard-response","58","2.1.0","119739","J=YES, F=NO","wz5fcnm3aj","1","70","70","70","","","","","","lextale","false","false","","","","","","","",""
"1015","
  <p style=""font-size: 40px;"">jungle</p>
  <p style=""font-size: 16px;"">J = YES &nbsp;&nbsp;&nbsp; F = NO</p>
","j","html-keyboard-response","59","2.1.0","120754","J=YES, F=NO","wz5fcnm3aj","1","70","70","70","","","","","","lextale","true","false","","","","","","","",""
"1551","
  <p style=""font-size: 40px;"">frolick</p>
  <p style=""font-size: 16px;"">J = YES &nbsp;&nbsp;&nbsp; F = NO</p>
","j","html-keyboard-response","60","2.1.0","122306","J=YES, F=NO","wz5fcnm3aj","1","70","70","70","","","","","","lextale","false","false","","","","","","","",""
"6344","
      <h2>LexTALE Test Completed</h2>
      <p>Your LexTALE vocabulary score is: <strong>70%</strong></p>
      <p>Press any key to continue.</p>
    "," ","html-keyboard-response","61","2.1.0","128652","J=YES, F=NO","wz5fcnm3aj","1","70","70","70","","","","","","","","","","","","","","","",""
"8255","
    <div style=""max-width: 800px; margin: auto; text-align: left;"">
      <h2>Break Time</h2>
      <p>You have completed the first part of the study.</p>
      <p>You may take a short <strong>30-second break</strong> before continuing.</p>
      <p>When you’re ready, press any key to continue to the final task.</p>
    </div>
  "," ","html-keyboard-response","62","2.1.0","136908","J=YES, F=NO","wz5fcnm3aj","1","70","70","70","","","","","","","","","","","","","","","",""
"23846","
    <div style=""max-width: 800px; margin: auto; text-align: left;"">
      <h2>Part 2: Lexical Decision Task</h2>
      <p>You will now begin the second part of the study.</p>
      <p>Each trial will follow this sequence:</p>
      <ul>
        <li>A fixation cross (+) appears at the center of the screen.</li>
        <li>You will hear a short beep followed by a spoken word.</li>
        <li>A written word will appear briefly on the screen.</li>
      </ul>
      <p>Your task is to judge whether the <strong>written word</strong> is a real English word.</p>
      <p style=""margin-top: 1em;""><strong>Key responses:</strong></p>
      <ul>
        <li><strong>J</strong> = YES (real English word)</li>
        <li><strong>F</strong> = NO (not a real English word)</li>
      </ul>
      <p>Please respond as quickly and accurately as you can.</p>
      <p style=""margin-top: 2em;"">Press any key to continue.</p>
    </div>
  "," ","html-keyboard-response","63","2.1.0","160756","J=YES, F=NO","wz5fcnm3aj","1","70","70","70","","","","","","","","","","","","","","","",""
"13566","
    <div style=""max-width: 800px; margin: auto; text-align: left;"">
      <h2>Before You Begin</h2>
      <p>Make sure your sound is turned on.</p>
      <p>You will hear audio during each trial, but your decision should be based only on the <strong>written word</strong> you see on the screen.</p>
      <p><strong>Reminder:</strong></p>
      <ul>
        <li><strong>J</strong> = YES (real English word)</li>
        <li><strong>F</strong> = NO (not a real English word)</li>
      </ul>
      <p style=""margin-top: 2em;"">Press any key when you are ready to begin.</p>
    </div>
  "," ","html-keyboard-response","64","2.1.0","174324","J=YES, F=NO","wz5fcnm3aj","1","70","70","70","","","","","","","","","","","","","","","",""
"4750","
    <div style=""max-width: 800px; margin: auto; text-align: left;"">
      <h2>Part 2: Practice Trials</h2>
      <p>You will now complete a few <strong>practice trials</strong> to get familiar with the task.</p>
      <p>These trials are <strong>not scored</strong> and are only to help you get used to the format.</p>
      <p style=""margin-top: 2em;"">Press any key to begin.</p>
    </div>
  "," ","html-keyboard-response","65","2.1.0","179076","J=YES, F=NO","wz5fcnm3aj","1","70","70","70","","","","","","","","","","","","","","","",""
"2789","<p>Starting practice block 1 of 2. Press any key to continue.</p>"," ","html-keyboard-response","66","2.1.0","181867","J=YES, F=NO","wz5fcnm3aj","1","70","70","70","","","","","","","","","","","","","","","",""
"null","<p style=""font-size: 50px;"">+</p>","null","html-keyboard-response","67","2.1.0","182170","J=YES, F=NO","wz5fcnm3aj","1","70","70","70","","","","","","","","","","","","","","","",""
"null","audio/beep-329314.mp3","null","audio-keyboard-response","68","2.1.0","183711","J=YES, F=NO","wz5fcnm3aj","1","70","70","70","","","","","","","","","","","","","","","",""
"null","audio/alarm1.wav","null","audio-keyboard-response","69","2.1.0","184282","J=YES, F=NO","wz5fcnm3aj","1","70","70","70","","","","","","","","","","","","","","","",""
"null","
          <p id=""word"" style=""font-size: 40px;"">lock</p>
          <p style=""font-size: 16px;"">J = YES &nbsp;&nbsp;&nbsp; F = NO</p>
        ","null","html-keyboard-response","70","2.1.0","185801","J=YES, F=NO","wz5fcnm3aj","1","70","70","70","","","","","","","","","lock","alarm1","filler","filler","j","false","",""
"null","<p style=""font-size: 50px;"">+</p>","null","html-keyboard-response","71","2.1.0","186120","J=YES, F=NO","wz5fcnm3aj","1","70","70","70","","","","","","","","","","","","","","","",""
"null","audio/beep-329314.mp3","null","audio-keyboard-response","72","2.1.0","187652","J=YES, F=NO","wz5fcnm3aj","1","70","70","70","","","","","","","","","","","","","","","",""
"null","audio/topic.wav","null","audio-keyboard-response","73","2.1.0","188402","J=YES, F=NO","wz5fcnm3aj","1","70","70","70","","","","","","","","","","","","","","","",""
"null","
          <p id=""word"" style=""font-size: 40px;"">infortuitist</p>
          <p style=""font-size: 16px;"">J = YES &nbsp;&nbsp;&nbsp; F = NO</p>
        ","null","html-keyboard-response","74","2.1.0","189910","J=YES, F=NO","wz5fcnm3aj","1","70","70","70","","","","","","","","","infortuitist","topic","pseudoword","pseudoword","f","false","",""
"null","<p style=""font-size: 50px;"">+</p>","null","html-keyboard-response","75","2.1.0","190220","J=YES, F=NO","wz5fcnm3aj","1","70","70","70","","","","","","","","","","","","","","","",""
"null","audio/beep-329314.mp3","null","audio-keyboard-response","76","2.1.0","191752","J=YES, F=NO","wz5fcnm3aj","1","70","70","70","","","","","","","","","","","","","","","",""
"null","audio/relief.wav","null","audio-keyboard-response","77","2.1.0","192582","J=YES, F=NO","wz5fcnm3aj","1","70","70","70","","","","","","","","","","","","","","","",""
"null","
          <p id=""word"" style=""font-size: 40px;"">grigg</p>
          <p style=""font-size: 16px;"">J = YES &nbsp;&nbsp;&nbsp; F = NO</p>
        ","null","html-keyboard-response","78","2.1.0","194090","J=YES, F=NO","wz5fcnm3aj","1","70","70","70","","","","","","","","","grigg","relief","pseudoword","pseudoword","f","false","",""
"null","<p style=""font-size: 50px;"">+</p>","null","html-keyboard-response","79","2.1.0","194410","J=YES, F=NO","wz5fcnm3aj","1","70","70","70","","","","","","","","","","","","","","","",""
"null","audio/beep-329314.mp3","null","audio-keyboard-response","80","2.1.0","195952","J=YES, F=NO","wz5fcnm3aj","1","70","70","70","","","","","","","","","","","","","","","",""
"null","audio/radio1.wav","null","audio-keyboard-response","81","2.1.0","196722","J=YES, F=NO","wz5fcnm3aj","1","70","70","70","","","","","","","","","","","","","","","",""
"1488","
          <p id=""word"" style=""font-size: 40px;"">blanter</p>
          <p style=""font-size: 16px;"">J = YES &nbsp;&nbsp;&nbsp; F = NO</p>
        ","f","html-keyboard-response","82","2.1.0","198212","J=YES, F=NO","wz5fcnm3aj","1","70","70","70","","","","","","","","","blanter","radio1","pseudoword","pseudoword","f","true","",""
"null","<p style=""font-size: 50px;"">+</p>","null","html-keyboard-response","83","2.1.0","198530","J=YES, F=NO","wz5fcnm3aj","1","70","70","70","","","","","","","","","","","","","","","",""
"null","audio/beep-329314.mp3","null","audio-keyboard-response","84","2.1.0","200072","J=YES, F=NO","wz5fcnm3aj","1","70","70","70","","","","","","","","","","","","","","","",""
"null","audio/scar.wav","null","audio-keyboard-response","85","2.1.0","200841","J=YES, F=NO","wz5fcnm3aj","1","70","70","70","","","","","","","","","","","","","","","",""
"null","
          <p id=""word"" style=""font-size: 40px;"">adelineate</p>
          <p style=""font-size: 16px;"">J = YES &nbsp;&nbsp;&nbsp; F = NO</p>
        ","null","html-keyboard-response","86","2.1.0","202360","J=YES, F=NO","wz5fcnm3aj","1","70","70","70","","","","","","","","","adelineate","scar","pseudoword","pseudoword","f","false","",""
"null","<p style=""font-size: 50px;"">+</p>","null","html-keyboard-response","87","2.1.0","202675","J=YES, F=NO","wz5fcnm3aj","1","70","70","70","","","","","","","","","","","","","","","",""
"null","audio/beep-329314.mp3","null","audio-keyboard-response","88","2.1.0","204212","J=YES, F=NO","wz5fcnm3aj","1","70","70","70","","","","","","","","","","","","","","","",""
"null","audio/bomb1.wav","null","audio-keyboard-response","89","2.1.0","204601","J=YES, F=NO","wz5fcnm3aj","1","70","70","70","","","","","","","","","","","","","","","",""
"1001","
          <p id=""word"" style=""font-size: 40px;"">clean</p>
          <p style=""font-size: 16px;"">J = YES &nbsp;&nbsp;&nbsp; F = NO</p>
        ","j","html-keyboard-response","90","2.1.0","205604","J=YES, F=NO","wz5fcnm3aj","1","70","70","70","","","","","","","","","clean","bomb1","filler","filler","j","true","",""
"null","<p style=""font-size: 50px;"">+</p>","null","html-keyboard-response","91","2.1.0","205920","J=YES, F=NO","wz5fcnm3aj","1","70","70","70","","","","","","","","","","","","","","","",""
"null","audio/beep-329314.mp3","null","audio-keyboard-response","92","2.1.0","207452","J=YES, F=NO","wz5fcnm3aj","1","70","70","70","","","","","","","","","","","","","","","",""
"null","audio/window1.wav","null","audio-keyboard-response","93","2.1.0","208322","J=YES, F=NO","wz5fcnm3aj","1","70","70","70","","","","","","","","","","","","","","","",""
"1329","
          <p id=""word"" style=""font-size: 40px;"">toss</p>
          <p style=""font-size: 16px;"">J = YES &nbsp;&nbsp;&nbsp; F = NO</p>
        ","f","html-keyboard-response","94","2.1.0","209652","J=YES, F=NO","wz5fcnm3aj","1","70","70","70","","","","","","","","","toss","window1","filler","filler","j","false","",""
"null","<p style=""font-size: 50px;"">+</p>","null","html-keyboard-response","95","2.1.0","209970","J=YES, F=NO","wz5fcnm3aj","1","70","70","70","","","","","","","","","","","","","","","",""
"null","audio/beep-329314.mp3","null","audio-keyboard-response","96","2.1.0","211511","J=YES, F=NO","wz5fcnm3aj","1","70","70","70","","","","","","","","","","","","","","","",""
"null","audio/heart1.wav","null","audio-keyboard-response","97","2.1.0","212302","J=YES, F=NO","wz5fcnm3aj","1","70","70","70","","","","","","","","","","","","","","","",""
"1173","
          <p id=""word"" style=""font-size: 40px;"">dralm</p>
          <p style=""font-size: 16px;"">J = YES &nbsp;&nbsp;&nbsp; F = NO</p>
        ","f","html-keyboard-response","98","2.1.0","213476","J=YES, F=NO","wz5fcnm3aj","1","70","70","70","","","","","","","","","dralm","heart1","pseudoword","pseudoword","f","true","",""
"null","<p style=""font-size: 50px;"">+</p>","null","html-keyboard-response","99","2.1.0","213780","J=YES, F=NO","wz5fcnm3aj","1","70","70","70","","","","","","","","","","","","","","","",""
"null","audio/beep-329314.mp3","null","audio-keyboard-response","100","2.1.0","215312","J=YES, F=NO","wz5fcnm3aj","1","70","70","70","","","","","","","","","","","","","","","",""
"null","audio/meal.wav","null","audio-keyboard-response","101","2.1.0","215942","J=YES, F=NO","wz5fcnm3aj","1","70","70","70","","","","","","","","","","","","","","","",""
"1179","
          <p id=""word"" style=""font-size: 40px;"">gallite</p>
          <p style=""font-size: 16px;"">J = YES &nbsp;&nbsp;&nbsp; F = NO</p>
        ","f","html-keyboard-response","102","2.1.0","217123","J=YES, F=NO","wz5fcnm3aj","1","70","70","70","","","","","","","","","gallite","meal","pseudoword","pseudoword","f","true","",""
"null","<p style=""font-size: 50px;"">+</p>","null","html-keyboard-response","103","2.1.0","217440","J=YES, F=NO","wz5fcnm3aj","1","70","70","70","","","","","","","","","","","","","","","",""
"null","audio/beep-329314.mp3","null","audio-keyboard-response","104","2.1.0","218972","J=YES, F=NO","wz5fcnm3aj","1","70","70","70","","","","","","","","","","","","","","","",""
"null","audio/haste1.wav","null","audio-keyboard-response","105","2.1.0","219722","J=YES, F=NO","wz5fcnm3aj","1","70","70","70","","","","","","","","","","","","","","","",""
"1009","
          <p id=""word"" style=""font-size: 40px;"">coraconate</p>
          <p style=""font-size: 16px;"">J = YES &nbsp;&nbsp;&nbsp; F = NO</p>
        ","j","html-keyboard-response","106","2.1.0","220732","J=YES, F=NO","wz5fcnm3aj","1","70","70","70","","","","","","","","","coraconate","haste1","pseudoword","pseudoword","f","false","",""
"null","<p style=""font-size: 50px;"">+</p>","null","html-keyboard-response","107","2.1.0","221040","J=YES, F=NO","wz5fcnm3aj","1","70","70","70","","","","","","","","","","","","","","","",""
"null","audio/beep-329314.mp3","null","audio-keyboard-response","108","2.1.0","222572","J=YES, F=NO","wz5fcnm3aj","1","70","70","70","","","","","","","","","","","","","","","",""
"null","audio/voice.wav","null","audio-keyboard-response","109","2.1.0","223342","J=YES, F=NO","wz5fcnm3aj","1","70","70","70","","","","","","","","","","","","","","","",""
"877","
          <p id=""word"" style=""font-size: 40px;"">grintle</p>
          <p style=""font-size: 16px;"">J = YES &nbsp;&nbsp;&nbsp; F = NO</p>
        ","j","html-keyboard-response","110","2.1.0","224220","J=YES, F=NO","wz5fcnm3aj","1","70","70","70","","","","","","","","","grintle","voice","pseudoword","pseudoword","f","false","",""
"null","<p style=""font-size: 50px;"">+</p>","null","html-keyboard-response","111","2.1.0","224540","J=YES, F=NO","wz5fcnm3aj","1","70","70","70","","","","","","","","","","","","","","","",""
"null","audio/beep-329314.mp3","null","audio-keyboard-response","112","2.1.0","226072","J=YES, F=NO","wz5fcnm3aj","1","70","70","70","","","","","","","","","","","","","","","",""
"null","audio/dollar.wav","null","audio-keyboard-response","113","2.1.0","226642","J=YES, F=NO","wz5fcnm3aj","1","70","70","70","","","","","","","","","","","","","","","",""
"1200","
          <p id=""word"" style=""font-size: 40px;"">gliptism</p>
          <p style=""font-size: 16px;"">J = YES &nbsp;&nbsp;&nbsp; F = NO</p>
        ","f","html-keyboard-response","114","2.1.0","227844","J=YES, F=NO","wz5fcnm3aj","1","70","70","70","","","","","","","","","gliptism","dollar","pseudoword","pseudoword","f","true","",""
"2223","<p>Starting practice block 2 of 2. Press any key to continue.</p>"," ","html-keyboard-response","115","2.1.0","230068","J=YES, F=NO","wz5fcnm3aj","1","70","70","70","","","","","","","","","","","","","","","",""
"null","<p style=""font-size: 50px;"">+</p>","null","html-keyboard-response","116","2.1.0","230370","J=YES, F=NO","wz5fcnm3aj","1","70","70","70","","","","","","","","","","","","","","","",""
"null","audio/beep-329314.mp3","null","audio-keyboard-response","117","2.1.0","231912","J=YES, F=NO","wz5fcnm3aj","1","70","70","70","","","","","","","","","","","","","","","",""
"null","audio/camera1.wav","null","audio-keyboard-response","118","2.1.0","232402","J=YES, F=NO","wz5fcnm3aj","1","70","70","70","","","","","","","","","","","","","","","",""
"null","
          <p id=""word"" style=""font-size: 40px;"">stir</p>
          <p style=""font-size: 16px;"">J = YES &nbsp;&nbsp;&nbsp; F = NO</p>
        ","null","html-keyboard-response","119","2.1.0","233920","J=YES, F=NO","wz5fcnm3aj","1","70","70","70","","","","","","","","","stir","camera1","filler","filler","j","false","",""
"null","<p style=""font-size: 50px;"">+</p>","null","html-keyboard-response","120","2.1.0","234230","J=YES, F=NO","wz5fcnm3aj","1","70","70","70","","","","","","","","","","","","","","","",""
"null","audio/beep-329314.mp3","null","audio-keyboard-response","121","2.1.0","235772","J=YES, F=NO","wz5fcnm3aj","1","70","70","70","","","","","","","","","","","","","","","",""
"null","audio/cancer1.wav","null","audio-keyboard-response","122","2.1.0","236482","J=YES, F=NO","wz5fcnm3aj","1","70","70","70","","","","","","","","","","","","","","","",""
"841","
          <p id=""word"" style=""font-size: 40px;"">draw</p>
          <p style=""font-size: 16px;"">J = YES &nbsp;&nbsp;&nbsp; F = NO</p>
        ","j","html-keyboard-response","123","2.1.0","237324","J=YES, F=NO","wz5fcnm3aj","1","70","70","70","","","","","","","","","draw","cancer1","filler","filler","j","true","",""
"null","<p style=""font-size: 50px;"">+</p>","null","html-keyboard-response","124","2.1.0","237640","J=YES, F=NO","wz5fcnm3aj","1","70","70","70","","","","","","","","","","","","","","","",""
"null","audio/beep-329314.mp3","null","audio-keyboard-response","125","2.1.0","239172","J=YES, F=NO","wz5fcnm3aj","1","70","70","70","","","","","","","","","","","","","","","",""
"null","audio/kettle1.wav","null","audio-keyboard-response","126","2.1.0","239642","J=YES, F=NO","wz5fcnm3aj","1","70","70","70","","","","","","","","","","","","","","","",""
"904","
          <p id=""word"" style=""font-size: 40px;"">wrap</p>
          <p style=""font-size: 16px;"">J = YES &nbsp;&nbsp;&nbsp; F = NO</p>
        ","j","html-keyboard-response","127","2.1.0","240548","J=YES, F=NO","wz5fcnm3aj","1","70","70","70","","","","","","","","","wrap","kettle1","filler","filler","j","true","",""
"null","<p style=""font-size: 50px;"">+</p>","null","html-keyboard-response","128","2.1.0","240851","J=YES, F=NO","wz5fcnm3aj","1","70","70","70","","","","","","","","","","","","","","","",""
"null","audio/beep-329314.mp3","null","audio-keyboard-response","129","2.1.0","242392","J=YES, F=NO","wz5fcnm3aj","1","70","70","70","","","","","","","","","","","","","","","",""
"null","audio/novel.wav","null","audio-keyboard-response","130","2.1.0","242882","J=YES, F=NO","wz5fcnm3aj","1","70","70","70","","","","","","","","","","","","","","","",""
"888","
          <p id=""word"" style=""font-size: 40px;"">type</p>
          <p style=""font-size: 16px;"">J = YES &nbsp;&nbsp;&nbsp; F = NO</p>
        ","j","html-keyboard-response","131","2.1.0","243772","J=YES, F=NO","wz5fcnm3aj","1","70","70","70","","","","","","","","","type","novel","filler","filler","j","true","",""
"null","<p style=""font-size: 50px;"">+</p>","null","html-keyboard-response","132","2.1.0","244090","J=YES, F=NO","wz5fcnm3aj","1","70","70","70","","","","","","","","","","","","","","","",""
"null","audio/beep-329314.mp3","null","audio-keyboard-response","133","2.1.0","245632","J=YES, F=NO","wz5fcnm3aj","1","70","70","70","","","","","","","","","","","","","","","",""
"null","audio/arm.wav","null","audio-keyboard-response","134","2.1.0","246182","J=YES, F=NO","wz5fcnm3aj","1","70","70","70","","","","","","","","","","","","","","","",""
"772","
          <p id=""word"" style=""font-size: 40px;"">fold</p>
          <p style=""font-size: 16px;"">J = YES &nbsp;&nbsp;&nbsp; F = NO</p>
        ","j","html-keyboard-response","135","2.1.0","246956","J=YES, F=NO","wz5fcnm3aj","1","70","70","70","","","","","","","","","fold","arm","filler","filler","j","true","",""
"null","<p style=""font-size: 50px;"">+</p>","null","html-keyboard-response","136","2.1.0","247270","J=YES, F=NO","wz5fcnm3aj","1","70","70","70","","","","","","","","","","","","","","","",""
"null","audio/beep-329314.mp3","null","audio-keyboard-response","137","2.1.0","248812","J=YES, F=NO","wz5fcnm3aj","1","70","70","70","","","","","","","","","","","","","","","",""
"null","audio/bridge.wav","null","audio-keyboard-response","138","2.1.0","249542","J=YES, F=NO","wz5fcnm3aj","1","70","70","70","","","","","","","","","","","","","","","",""
"829","
          <p id=""word"" style=""font-size: 40px;"">crack</p>
          <p style=""font-size: 16px;"">J = YES &nbsp;&nbsp;&nbsp; F = NO</p>
        ","j","html-keyboard-response","139","2.1.0","250372","J=YES, F=NO","wz5fcnm3aj","1","70","70","70","","","","","","","","","crack","bridge","filler","filler","j","true","",""
"null","<p style=""font-size: 50px;"">+</p>","null","html-keyboard-response","140","2.1.0","250690","J=YES, F=NO","wz5fcnm3aj","1","70","70","70","","","","","","","","","","","","","","","",""
"null","audio/beep-329314.mp3","null","audio-keyboard-response","141","2.1.0","252232","J=YES, F=NO","wz5fcnm3aj","1","70","70","70","","","","","","","","","","","","","","","",""
"null","audio/foot1.wav","null","audio-keyboard-response","142","2.1.0","252782","J=YES, F=NO","wz5fcnm3aj","1","70","70","70","","","","","","","","","","","","","","","",""
"684","
          <p id=""word"" style=""font-size: 40px;"">thrutt</p>
          <p style=""font-size: 16px;"">J = YES &nbsp;&nbsp;&nbsp; F = NO</p>
        ","f","html-keyboard-response","143","2.1.0","253468","J=YES, F=NO","wz5fcnm3aj","1","70","70","70","","","","","","","","","thrutt","foot1","pseudoword","pseudoword","f","true","",""
"null","<p style=""font-size: 50px;"">+</p>","null","html-keyboard-response","144","2.1.0","253780","J=YES, F=NO","wz5fcnm3aj","1","70","70","70","","","","","","","","","","","","","","","",""
"null","audio/beep-329314.mp3","null","audio-keyboard-response","145","2.1.0","255312","J=YES, F=NO","wz5fcnm3aj","1","70","70","70","","","","","","","","","","","","","","","",""
"null","audio/golf1.wav","null","audio-keyboard-response","146","2.1.0","256061","J=YES, F=NO","wz5fcnm3aj","1","70","70","70","","","","","","","","","","","","","","","",""
"1157","
          <p id=""word"" style=""font-size: 40px;"">drabble</p>
          <p style=""font-size: 16px;"">J = YES &nbsp;&nbsp;&nbsp; F = NO</p>
        ","f","html-keyboard-response","147","2.1.0","257220","J=YES, F=NO","wz5fcnm3aj","1","70","70","70","","","","","","","","","drabble","golf1","pseudoword","pseudoword","f","true","",""
"null","<p style=""font-size: 50px;"">+</p>","null","html-keyboard-response","148","2.1.0","257530","J=YES, F=NO","wz5fcnm3aj","1","70","70","70","","","","","","","","","","","","","","","",""
"null","audio/beep-329314.mp3","null","audio-keyboard-response","149","2.1.0","259072","J=YES, F=NO","wz5fcnm3aj","1","70","70","70","","","","","","","","","","","","","","","",""
"null","audio/neck.wav","null","audio-keyboard-response","150","2.1.0","259801","J=YES, F=NO","wz5fcnm3aj","1","70","70","70","","","","","","","","","","","","","","","",""
"1073","
          <p id=""word"" style=""font-size: 40px;"">werling</p>
          <p style=""font-size: 16px;"">J = YES &nbsp;&nbsp;&nbsp; F = NO</p>
        ","j","html-keyboard-response","151","2.1.0","260876","J=YES, F=NO","wz5fcnm3aj","1","70","70","70","","","","","","","","","werling","neck","pseudoword","pseudoword","f","false","",""
"null","<p style=""font-size: 50px;"">+</p>","null","html-keyboard-response","152","2.1.0","261180","J=YES, F=NO","wz5fcnm3aj","1","70","70","70","","","","","","","","","","","","","","","",""
"null","audio/beep-329314.mp3","null","audio-keyboard-response","153","2.1.0","262712","J=YES, F=NO","wz5fcnm3aj","1","70","70","70","","","","","","","","","","","","","","","",""
"null","audio/battle1.wav","null","audio-keyboard-response","154","2.1.0","263182","J=YES, F=NO","wz5fcnm3aj","1","70","70","70","","","","","","","","","","","","","","","",""
"924","
          <p id=""word"" style=""font-size: 40px;"">boil</p>
          <p style=""font-size: 16px;"">J = YES &nbsp;&nbsp;&nbsp; F = NO</p>
        ","j","html-keyboard-response","155","2.1.0","264108","J=YES, F=NO","wz5fcnm3aj","1","70","70","70","","","","","","","","","boil","battle1","filler","filler","j","true","",""
"null","<p style=""font-size: 50px;"">+</p>","null","html-keyboard-response","156","2.1.0","264420","J=YES, F=NO","wz5fcnm3aj","1","70","70","70","","","","","","","","","","","","","","","",""
"null","audio/beep-329314.mp3","null","audio-keyboard-response","157","2.1.0","265952","J=YES, F=NO","wz5fcnm3aj","1","70","70","70","","","","","","","","","","","","","","","",""
"null","audio/butter1.wav","null","audio-keyboard-response","158","2.1.0","266562","J=YES, F=NO","wz5fcnm3aj","1","70","70","70","","","","","","","","","","","","","","","",""
"823","
          <p id=""word"" style=""font-size: 40px;"">chew</p>
          <p style=""font-size: 16px;"">J = YES &nbsp;&nbsp;&nbsp; F = NO</p>
        ","j","html-keyboard-response","159","2.1.0","267386","J=YES, F=NO","wz5fcnm3aj","1","70","70","70","","","","","","","","","chew","butter1","filler","filler","j","true","",""
"null","<p style=""font-size: 50px;"">+</p>","null","html-keyboard-response","160","2.1.0","267700","J=YES, F=NO","wz5fcnm3aj","1","70","70","70","","","","","","","","","","","","","","","",""
"null","audio/beep-329314.mp3","null","audio-keyboard-response","161","2.1.0","269232","J=YES, F=NO","wz5fcnm3aj","1","70","70","70","","","","","","","","","","","","","","","",""
"null","audio/fence.wav","null","audio-keyboard-response","162","2.1.0","270062","J=YES, F=NO","wz5fcnm3aj","1","70","70","70","","","","","","","","","","","","","","","",""
"981","
          <p id=""word"" style=""font-size: 40px;"">trim</p>
          <p style=""font-size: 16px;"">J = YES &nbsp;&nbsp;&nbsp; F = NO</p>
        ","f","html-keyboard-response","163","2.1.0","271044","J=YES, F=NO","wz5fcnm3aj","1","70","70","70","","","","","","","","","trim","fence","filler","filler","j","false","",""
"8134","
    <div style=""max-width: 800px; margin: auto; text-align: left;"">
      <h2>Part 2: Main Trials</h2>
      <p>Great job on the practice trials!</p>
      <p>You will now begin the <strong>main set of trials</strong>.</p>
      <p>Remember your key assignments:</p>
      <ul>
        <li><strong>J</strong> = YES (real English word)</li>
        <li><strong>F</strong> = NO (not a real English word)</li>
      </ul>
      <p>Try to respond as <strong>quickly and accurately</strong> as possible.</p>
      <p style=""margin-top: 2em;"">Press any key to begin the main trials.</p>
    </div>
  "," ","html-keyboard-response","164","2.1.0","279180","J=YES, F=NO","wz5fcnm3aj","1","70","70","70","","","","","","","","","","","","","","","",""
"2277","<p>Starting main block 1 of 8. Press any key to continue.</p>"," ","html-keyboard-response","165","2.1.0","281458","J=YES, F=NO","wz5fcnm3aj","1","70","70","70","","","","","","","","","","","","","","","",""
"null","<p style=""font-size: 50px;"">+</p>","null","html-keyboard-response","166","2.1.0","281763","J=YES, F=NO","wz5fcnm3aj","1","70","70","70","","","","","","","","","","","","","","","",""
"null","audio/beep-329314.mp3","null","audio-keyboard-response","167","2.1.0","283267","J=YES, F=NO","wz5fcnm3aj","1","70","70","70","","","","","","","","","","","","","","","",""
"null","audio/plot1.wav","null","audio-keyboard-response","168","2.1.0","283787","J=YES, F=NO","wz5fcnm3aj","1","70","70","70","","","","","","","","","","","","","","","",""
"990","
          <p id=""word"" style=""font-size: 40px;"">glenter</p>
          <p style=""font-size: 16px;"">J = YES &nbsp;&nbsp;&nbsp; F = NO</p>
        ","f","html-keyboard-response","169","2.1.0","284779","J=YES, F=NO","wz5fcnm3aj","1","70","70","70","","","","","","","","","glenter","plot1","pseudoword","pseudoword","f","true","",""
"null","<p style=""font-size: 50px;"">+</p>","null","html-keyboard-response","170","2.1.0","285096","J=YES, F=NO","wz5fcnm3aj","1","70","70","70","","","","","","","","","","","","","","","",""
"null","audio/beep-329314.mp3","null","audio-keyboard-response","171","2.1.0","286627","J=YES, F=NO","wz5fcnm3aj","1","70","70","70","","","","","","","","","","","","","","","",""
"null","audio/purpose.wav","null","audio-keyboard-response","172","2.1.0","287287","J=YES, F=NO","wz5fcnm3aj","1","70","70","70","","","","","","","","","","","","","","","",""
"955","
          <p id=""word"" style=""font-size: 40px;"">whigm</p>
          <p style=""font-size: 16px;"">J = YES &nbsp;&nbsp;&nbsp; F = NO</p>
        ","f","html-keyboard-response","173","2.1.0","288244","J=YES, F=NO","wz5fcnm3aj","1","70","70","70","","","","","","","","","whigm","purpose","pseudoword","pseudoword","f","true","",""
"null","<p style=""font-size: 50px;"">+</p>","null","html-keyboard-response","174","2.1.0","288546","J=YES, F=NO","wz5fcnm3aj","1","70","70","70","","","","","","","","","","","","","","","",""
"null","audio/beep-329314.mp3","null","audio-keyboard-response","175","2.1.0","290087","J=YES, F=NO","wz5fcnm3aj","1","70","70","70","","","","","","","","","","","","","","","",""
"null","audio/kettle1.wav","null","audio-keyboard-response","176","2.1.0","290547","J=YES, F=NO","wz5fcnm3aj","1","70","70","70","","","","","","","","","","","","","","","",""
"895","
          <p id=""word"" style=""font-size: 40px;"">navigate</p>
          <p style=""font-size: 16px;"">J = YES &nbsp;&nbsp;&nbsp; F = NO</p>
        ","j","html-keyboard-response","177","2.1.0","291444","J=YES, F=NO","wz5fcnm3aj","1","70","70","70","","","","","","","","","navigate","kettle1","unrelated","experimental","j","true","",""
"null","<p style=""font-size: 50px;"">+</p>","null","html-keyboard-response","178","2.1.0","291765","J=YES, F=NO","wz5fcnm3aj","1","70","70","70","","","","","","","","","","","","","","","",""
"null","audio/beep-329314.mp3","null","audio-keyboard-response","179","2.1.0","293307","J=YES, F=NO","wz5fcnm3aj","1","70","70","70","","","","","","","","","","","","","","","",""
"null","audio/bishop1.wav","null","audio-keyboard-response","180","2.1.0","293887","J=YES, F=NO","wz5fcnm3aj","1","70","70","70","","","","","","","","","","","","","","","",""
"634","
          <p id=""word"" style=""font-size: 40px;"">play</p>
          <p style=""font-size: 16px;"">J = YES &nbsp;&nbsp;&nbsp; F = NO</p>
        ","j","html-keyboard-response","181","2.1.0","294523","J=YES, F=NO","wz5fcnm3aj","1","70","70","70","","","","","","","","","play","bishop1","filler","filler","j","true","",""
"null","<p style=""font-size: 50px;"">+</p>","null","html-keyboard-response","182","2.1.0","294835","J=YES, F=NO","wz5fcnm3aj","1","70","70","70","","","","","","","","","","","","","","","",""
"null","audio/beep-329314.mp3","null","audio-keyboard-response","183","2.1.0","296367","J=YES, F=NO","wz5fcnm3aj","1","70","70","70","","","","","","","","","","","","","","","",""
"null","audio/stain.wav","null","audio-keyboard-response","184","2.1.0","297007","J=YES, F=NO","wz5fcnm3aj","1","70","70","70","","","","","","","","","","","","","","","",""
"651","
          <p id=""word"" style=""font-size: 40px;"">wipe</p>
          <p style=""font-size: 16px;"">J = YES &nbsp;&nbsp;&nbsp; F = NO</p>
        ","j","html-keyboard-response","185","2.1.0","297660","J=YES, F=NO","wz5fcnm3aj","1","70","70","70","","","","","","","","","wipe","stain","literal","experimental","j","true","",""
"null","<p style=""font-size: 50px;"">+</p>","null","html-keyboard-response","186","2.1.0","297975","J=YES, F=NO","wz5fcnm3aj","1","70","70","70","","","","","","","","","","","","","","","",""
"null","audio/beep-329314.mp3","null","audio-keyboard-response","187","2.1.0","299507","J=YES, F=NO","wz5fcnm3aj","1","70","70","70","","","","","","","","","","","","","","","",""
"null","audio/brain.wav","null","audio-keyboard-response","188","2.1.0","299987","J=YES, F=NO","wz5fcnm3aj","1","70","70","70","","","","","","","","","","","","","","","",""
"743","
          <p id=""word"" style=""font-size: 40px;"">throw</p>
          <p style=""font-size: 16px;"">J = YES &nbsp;&nbsp;&nbsp; F = NO</p>
        ","j","html-keyboard-response","189","2.1.0","300732","J=YES, F=NO","wz5fcnm3aj","1","70","70","70","","","","","","","","","throw","brain","filler","filler","j","true","",""
"null","<p style=""font-size: 50px;"">+</p>","null","html-keyboard-response","190","2.1.0","301045","J=YES, F=NO","wz5fcnm3aj","1","70","70","70","","","","","","","","","","","","","","","",""
"null","audio/beep-329314.mp3","null","audio-keyboard-response","191","2.1.0","302587","J=YES, F=NO","wz5fcnm3aj","1","70","70","70","","","","","","","","","","","","","","","",""
"null","audio/cinema1.wav","null","audio-keyboard-response","192","2.1.0","303187","J=YES, F=NO","wz5fcnm3aj","1","70","70","70","","","","","","","","","","","","","","","",""
"759","
          <p id=""word"" style=""font-size: 40px;"">murple</p>
          <p style=""font-size: 16px;"">J = YES &nbsp;&nbsp;&nbsp; F = NO</p>
        ","j","html-keyboard-response","193","2.1.0","303948","J=YES, F=NO","wz5fcnm3aj","1","70","70","70","","","","","","","","","murple","cinema1","pseudoword","pseudoword","f","false","",""
"null","<p style=""font-size: 50px;"">+</p>","null","html-keyboard-response","194","2.1.0","304265","J=YES, F=NO","wz5fcnm3aj","1","70","70","70","","","","","","","","","","","","","","","",""
"null","audio/beep-329314.mp3","null","audio-keyboard-response","195","2.1.0","305806","J=YES, F=NO","wz5fcnm3aj","1","70","70","70","","","","","","","","","","","","","","","",""
"null","audio/flaw.wav","null","audio-keyboard-response","196","2.1.0","306427","J=YES, F=NO","wz5fcnm3aj","1","70","70","70","","","","","","","","","","","","","","","",""
"896","
          <p id=""word"" style=""font-size: 40px;"">thwool</p>
          <p style=""font-size: 16px;"">J = YES &nbsp;&nbsp;&nbsp; F = NO</p>
        ","f","html-keyboard-response","197","2.1.0","307324","J=YES, F=NO","wz5fcnm3aj","1","70","70","70","","","","","","","","","thwool","flaw","pseudoword","pseudoword","f","true","",""
"null","<p style=""font-size: 50px;"">+</p>","null","html-keyboard-response","198","2.1.0","307645","J=YES, F=NO","wz5fcnm3aj","1","70","70","70","","","","","","","","","","","","","","","",""
"null","audio/beep-329314.mp3","null","audio-keyboard-response","199","2.1.0","309187","J=YES, F=NO","wz5fcnm3aj","1","70","70","70","","","","","","","","","","","","","","","",""
"null","audio/truth1.wav","null","audio-keyboard-response","200","2.1.0","309727","J=YES, F=NO","wz5fcnm3aj","1","70","70","70","","","","","","","","","","","","","","","",""
"1028","
          <p id=""word"" style=""font-size: 40px;"">calitom</p>
          <p style=""font-size: 16px;"">J = YES &nbsp;&nbsp;&nbsp; F = NO</p>
        ","f","html-keyboard-response","201","2.1.0","310756","J=YES, F=NO","wz5fcnm3aj","1","70","70","70","","","","","","","","","calitom","truth1","pseudoword","pseudoword","f","true","",""
"null","<p style=""font-size: 50px;"">+</p>","null","html-keyboard-response","202","2.1.0","311065","J=YES, F=NO","wz5fcnm3aj","1","70","70","70","","","","","","","","","","","","","","","",""
"null","audio/beep-329314.mp3","null","audio-keyboard-response","203","2.1.0","312606","J=YES, F=NO","wz5fcnm3aj","1","70","70","70","","","","","","","","","","","","","","","",""
"null","audio/road.wav","null","audio-keyboard-response","204","2.1.0","313027","J=YES, F=NO","wz5fcnm3aj","1","70","70","70","","","","","","","","","","","","","","","",""
"887","
          <p id=""word"" style=""font-size: 40px;"">wappings</p>
          <p style=""font-size: 16px;"">J = YES &nbsp;&nbsp;&nbsp; F = NO</p>
        ","f","html-keyboard-response","205","2.1.0","313916","J=YES, F=NO","wz5fcnm3aj","1","70","70","70","","","","","","","","","wappings","road","pseudoword","pseudoword","f","true","",""
"null","<p style=""font-size: 50px;"">+</p>","null","html-keyboard-response","206","2.1.0","314226","J=YES, F=NO","wz5fcnm3aj","1","70","70","70","","","","","","","","","","","","","","","",""
"null","audio/beep-329314.mp3","null","audio-keyboard-response","207","2.1.0","315767","J=YES, F=NO","wz5fcnm3aj","1","70","70","70","","","","","","","","","","","","","","","",""
"null","audio/card1.wav","null","audio-keyboard-response","208","2.1.0","316307","J=YES, F=NO","wz5fcnm3aj","1","70","70","70","","","","","","","","","","","","","","","",""
"543","
          <p id=""word"" style=""font-size: 40px;"">land</p>
          <p style=""font-size: 16px;"">J = YES &nbsp;&nbsp;&nbsp; F = NO</p>
        ","j","html-keyboard-response","209","2.1.0","316852","J=YES, F=NO","wz5fcnm3aj","1","70","70","70","","","","","","","","","land","card1","unrelated","experimental","j","true","",""
"null","<p style=""font-size: 50px;"">+</p>","null","html-keyboard-response","210","2.1.0","317154","J=YES, F=NO","wz5fcnm3aj","1","70","70","70","","","","","","","","","","","","","","","",""
"null","audio/beep-329314.mp3","null","audio-keyboard-response","211","2.1.0","318687","J=YES, F=NO","wz5fcnm3aj","1","70","70","70","","","","","","","","","","","","","","","",""
"null","audio/gold1.wav","null","audio-keyboard-response","212","2.1.0","319227","J=YES, F=NO","wz5fcnm3aj","1","70","70","70","","","","","","","","","","","","","","","",""
"656","
          <p id=""word"" style=""font-size: 40px;"">sell</p>
          <p style=""font-size: 16px;"">J = YES &nbsp;&nbsp;&nbsp; F = NO</p>
        ","j","html-keyboard-response","213","2.1.0","319884","J=YES, F=NO","wz5fcnm3aj","1","70","70","70","","","","","","","","","sell","gold1","literal","experimental","j","true","",""
"null","<p style=""font-size: 50px;"">+</p>","null","html-keyboard-response","214","2.1.0","320195","J=YES, F=NO","wz5fcnm3aj","1","70","70","70","","","","","","","","","","","","","","","",""
"null","audio/beep-329314.mp3","null","audio-keyboard-response","215","2.1.0","321727","J=YES, F=NO","wz5fcnm3aj","1","70","70","70","","","","","","","","","","","","","","","",""
"null","audio/brain.wav","null","audio-keyboard-response","216","2.1.0","322207","J=YES, F=NO","wz5fcnm3aj","1","70","70","70","","","","","","","","","","","","","","","",""
"659","
          <p id=""word"" style=""font-size: 40px;"">flood</p>
          <p style=""font-size: 16px;"">J = YES &nbsp;&nbsp;&nbsp; F = NO</p>
        ","j","html-keyboard-response","217","2.1.0","322868","J=YES, F=NO","wz5fcnm3aj","1","70","70","70","","","","","","","","","flood","brain","metaphor","experimental","j","true","",""
"null","<p style=""font-size: 50px;"">+</p>","null","html-keyboard-response","218","2.1.0","323185","J=YES, F=NO","wz5fcnm3aj","1","70","70","70","","","","","","","","","","","","","","","",""
"null","audio/beep-329314.mp3","null","audio-keyboard-response","219","2.1.0","324727","J=YES, F=NO","wz5fcnm3aj","1","70","70","70","","","","","","","","","","","","","","","",""
"null","audio/sugar1.wav","null","audio-keyboard-response","220","2.1.0","325207","J=YES, F=NO","wz5fcnm3aj","1","70","70","70","","","","","","","","","","","","","","","",""
"827","
          <p id=""word"" style=""font-size: 40px;"">approach</p>
          <p style=""font-size: 16px;"">J = YES &nbsp;&nbsp;&nbsp; F = NO</p>
        ","j","html-keyboard-response","221","2.1.0","326036","J=YES, F=NO","wz5fcnm3aj","1","70","70","70","","","","","","","","","approach","sugar1","unrelated","experimental","j","true","",""
"null","<p style=""font-size: 50px;"">+</p>","null","html-keyboard-response","222","2.1.0","326355","J=YES, F=NO","wz5fcnm3aj","1","70","70","70","","","","","","","","","","","","","","","",""
"null","audio/beep-329314.mp3","null","audio-keyboard-response","223","2.1.0","327887","J=YES, F=NO","wz5fcnm3aj","1","70","70","70","","","","","","","","","","","","","","","",""
"null","audio/skin1.wav","null","audio-keyboard-response","224","2.1.0","328446","J=YES, F=NO","wz5fcnm3aj","1","70","70","70","","","","","","","","","","","","","","","",""
"764","
          <p id=""word"" style=""font-size: 40px;"">expose</p>
          <p style=""font-size: 16px;"">J = YES &nbsp;&nbsp;&nbsp; F = NO</p>
        ","j","html-keyboard-response","225","2.1.0","329210","J=YES, F=NO","wz5fcnm3aj","1","70","70","70","","","","","","","","","expose","skin1","literal","experimental","j","true","",""
"null","<p style=""font-size: 50px;"">+</p>","null","html-keyboard-response","226","2.1.0","329525","J=YES, F=NO","wz5fcnm3aj","1","70","70","70","","","","","","","","","","","","","","","",""
"null","audio/beep-329314.mp3","null","audio-keyboard-response","227","2.1.0","331047","J=YES, F=NO","wz5fcnm3aj","1","70","70","70","","","","","","","","","","","","","","","",""
"null","audio/effort.wav","null","audio-keyboard-response","228","2.1.0","331627","J=YES, F=NO","wz5fcnm3aj","1","70","70","70","","","","","","","","","","","","","","","",""
"815","
          <p id=""word"" style=""font-size: 40px;"">whonk</p>
          <p style=""font-size: 16px;"">J = YES &nbsp;&nbsp;&nbsp; F = NO</p>
        ","f","html-keyboard-response","229","2.1.0","332444","J=YES, F=NO","wz5fcnm3aj","1","70","70","70","","","","","","","","","whonk","effort","pseudoword","pseudoword","f","true","",""
"3958","<p>Excellent! You have finished block 1 of 8.</p>
                     <p>Feel free to take a 30 second break.</p>
                     <p>Press any key when you're ready to continue.</p>"," ","html-keyboard-response","230","2.1.0","336404","J=YES, F=NO","wz5fcnm3aj","1","70","70","70","","","","","","","","","","","","","","","",""
"1054","<p>Starting main block 2 of 8. Press any key to continue.</p>"," ","html-keyboard-response","231","2.1.0","337458","J=YES, F=NO","wz5fcnm3aj","1","70","70","70","","","","","","","","","","","","","","","",""
"null","<p style=""font-size: 50px;"">+</p>","null","html-keyboard-response","232","2.1.0","337775","J=YES, F=NO","wz5fcnm3aj","1","70","70","70","","","","","","","","","","","","","","","",""
"null","audio/beep-329314.mp3","null","audio-keyboard-response","233","2.1.0","339308","J=YES, F=NO","wz5fcnm3aj","1","70","70","70","","","","","","","","","","","","","","","",""
"null","audio/mind.wav","null","audio-keyboard-response","234","2.1.0","339867","J=YES, F=NO","wz5fcnm3aj","1","70","70","70","","","","","","","","","","","","","","","",""
"911","
          <p id=""word"" style=""font-size: 40px;"">crainate</p>
          <p style=""font-size: 16px;"">J = YES &nbsp;&nbsp;&nbsp; F = NO</p>
        ","f","html-keyboard-response","235","2.1.0","340780","J=YES, F=NO","wz5fcnm3aj","1","70","70","70","","","","","","","","","crainate","mind","pseudoword","pseudoword","f","true","",""
"null","<p style=""font-size: 50px;"">+</p>","null","html-keyboard-response","236","2.1.0","341085","J=YES, F=NO","wz5fcnm3aj","1","70","70","70","","","","","","","","","","","","","","","",""
"null","audio/beep-329314.mp3","null","audio-keyboard-response","237","2.1.0","342627","J=YES, F=NO","wz5fcnm3aj","1","70","70","70","","","","","","","","","","","","","","","",""
"null","audio/survey1.wav","null","audio-keyboard-response","238","2.1.0","343347","J=YES, F=NO","wz5fcnm3aj","1","70","70","70","","","","","","","","","","","","","","","",""
"983","
          <p id=""word"" style=""font-size: 40px;"">imploth</p>
          <p style=""font-size: 16px;"">J = YES &nbsp;&nbsp;&nbsp; F = NO</p>
        ","f","html-keyboard-response","239","2.1.0","344332","J=YES, F=NO","wz5fcnm3aj","1","70","70","70","","","","","","","","","imploth","survey1","pseudoword","pseudoword","f","true","",""
"null","<p style=""font-size: 50px;"">+</p>","null","html-keyboard-response","240","2.1.0","344645","J=YES, F=NO","wz5fcnm3aj","1","70","70","70","","","","","","","","","","","","","","","",""
"null","audio/beep-329314.mp3","null","audio-keyboard-response","241","2.1.0","346187","J=YES, F=NO","wz5fcnm3aj","1","70","70","70","","","","","","","","","","","","","","","",""
"null","audio/show.wav","null","audio-keyboard-response","242","2.1.0","346727","J=YES, F=NO","wz5fcnm3aj","1","70","70","70","","","","","","","","","","","","","","","",""
"955","
          <p id=""word"" style=""font-size: 40px;"">smark</p>
          <p style=""font-size: 16px;"">J = YES &nbsp;&nbsp;&nbsp; F = NO</p>
        ","j","html-keyboard-response","243","2.1.0","347684","J=YES, F=NO","wz5fcnm3aj","1","70","70","70","","","","","","","","","smark","show","pseudoword","pseudoword","f","false","",""
"null","<p style=""font-size: 50px;"">+</p>","null","html-keyboard-response","244","2.1.0","348005","J=YES, F=NO","wz5fcnm3aj","1","70","70","70","","","","","","","","","","","","","","","",""
"null","audio/beep-329314.mp3","null","audio-keyboard-response","245","2.1.0","349547","J=YES, F=NO","wz5fcnm3aj","1","70","70","70","","","","","","","","","","","","","","","",""
"null","audio/theory1.wav","null","audio-keyboard-response","246","2.1.0","350187","J=YES, F=NO","wz5fcnm3aj","1","70","70","70","","","","","","","","","","","","","","","",""
"1287","
          <p id=""word"" style=""font-size: 40px;"">scolve</p>
          <p style=""font-size: 16px;"">J = YES &nbsp;&nbsp;&nbsp; F = NO</p>
        ","f","html-keyboard-response","247","2.1.0","351475","J=YES, F=NO","wz5fcnm3aj","1","70","70","70","","","","","","","","","scolve","theory1","pseudoword","pseudoword","f","true","",""
"null","<p style=""font-size: 50px;"">+</p>","null","html-keyboard-response","248","2.1.0","351781","J=YES, F=NO","wz5fcnm3aj","1","70","70","70","","","","","","","","","","","","","","","",""
"null","audio/beep-329314.mp3","null","audio-keyboard-response","249","2.1.0","353307","J=YES, F=NO","wz5fcnm3aj","1","70","70","70","","","","","","","","","","","","","","","",""
"null","audio/test1.wav","null","audio-keyboard-response","250","2.1.0","353867","J=YES, F=NO","wz5fcnm3aj","1","70","70","70","","","","","","","","","","","","","","","",""
"656","
          <p id=""word"" style=""font-size: 40px;"">run</p>
          <p style=""font-size: 16px;"">J = YES &nbsp;&nbsp;&nbsp; F = NO</p>
        ","j","html-keyboard-response","251","2.1.0","354524","J=YES, F=NO","wz5fcnm3aj","1","70","70","70","","","","","","","","","run","test1","metaphor","experimental","j","true","",""
"null","<p style=""font-size: 50px;"">+</p>","null","html-keyboard-response","252","2.1.0","354845","J=YES, F=NO","wz5fcnm3aj","1","70","70","70","","","","","","","","","","","","","","","",""
"null","audio/beep-329314.mp3","null","audio-keyboard-response","253","2.1.0","356387","J=YES, F=NO","wz5fcnm3aj","1","70","70","70","","","","","","","","","","","","","","","",""
"null","audio/noise1.wav","null","audio-keyboard-response","254","2.1.0","356987","J=YES, F=NO","wz5fcnm3aj","1","70","70","70","","","","","","","","","","","","","","","",""
"839","
          <p id=""word"" style=""font-size: 40px;"">build</p>
          <p style=""font-size: 16px;"">J = YES &nbsp;&nbsp;&nbsp; F = NO</p>
        ","j","html-keyboard-response","255","2.1.0","357828","J=YES, F=NO","wz5fcnm3aj","1","70","70","70","","","","","","","","","build","noise1","unrelated","experimental","j","true","",""
"null","<p style=""font-size: 50px;"">+</p>","null","html-keyboard-response","256","2.1.0","358135","J=YES, F=NO","wz5fcnm3aj","1","70","70","70","","","","","","","","","","","","","","","",""
"null","audio/beep-329314.mp3","null","audio-keyboard-response","257","2.1.0","359667","J=YES, F=NO","wz5fcnm3aj","1","70","70","70","","","","","","","","","","","","","","","",""
"null","audio/tax1.wav","null","audio-keyboard-response","258","2.1.0","360267","J=YES, F=NO","wz5fcnm3aj","1","70","70","70","","","","","","","","","","","","","","","",""
"903","
          <p id=""word"" style=""font-size: 40px;"">snate</p>
          <p style=""font-size: 16px;"">J = YES &nbsp;&nbsp;&nbsp; F = NO</p>
        ","f","html-keyboard-response","259","2.1.0","361172","J=YES, F=NO","wz5fcnm3aj","1","70","70","70","","","","","","","","","snate","tax1","pseudoword","pseudoword","f","true","",""
"null","<p style=""font-size: 50px;"">+</p>","null","html-keyboard-response","260","2.1.0","361475","J=YES, F=NO","wz5fcnm3aj","1","70","70","70","","","","","","","","","","","","","","","",""
"null","audio/beep-329314.mp3","null","audio-keyboard-response","261","2.1.0","363007","J=YES, F=NO","wz5fcnm3aj","1","70","70","70","","","","","","","","","","","","","","","",""
"null","audio/flaw.wav","null","audio-keyboard-response","262","2.1.0","363627","J=YES, F=NO","wz5fcnm3aj","1","70","70","70","","","","","","","","","","","","","","","",""
"1160","
          <p id=""word"" style=""font-size: 40px;"">hide</p>
          <p style=""font-size: 16px;"">J = YES &nbsp;&nbsp;&nbsp; F = NO</p>
        ","j","html-keyboard-response","263","2.1.0","364788","J=YES, F=NO","wz5fcnm3aj","1","70","70","70","","","","","","","","","hide","flaw","metaphor","experimental","j","true","",""
"null","<p style=""font-size: 50px;"">+</p>","null","html-keyboard-response","264","2.1.0","365103","J=YES, F=NO","wz5fcnm3aj","1","70","70","70","","","","","","","","","","","","","","","",""
"null","audio/beep-329314.mp3","null","audio-keyboard-response","265","2.1.0","366627","J=YES, F=NO","wz5fcnm3aj","1","70","70","70","","","","","","","","","","","","","","","",""
"null","audio/camp.wav","null","audio-keyboard-response","266","2.1.0","367167","J=YES, F=NO","wz5fcnm3aj","1","70","70","70","","","","","","","","","","","","","","","",""
"843","
          <p id=""word"" style=""font-size: 40px;"">touch</p>
          <p style=""font-size: 16px;"">J = YES &nbsp;&nbsp;&nbsp; F = NO</p>
        ","j","html-keyboard-response","267","2.1.0","368012","J=YES, F=NO","wz5fcnm3aj","1","70","70","70","","","","","","","","","touch","camp","unrelated","experimental","j","true","",""
"null","<p style=""font-size: 50px;"">+</p>","null","html-keyboard-response","268","2.1.0","368316","J=YES, F=NO","wz5fcnm3aj","1","70","70","70","","","","","","","","","","","","","","","",""
"null","audio/beep-329314.mp3","null","audio-keyboard-response","269","2.1.0","369847","J=YES, F=NO","wz5fcnm3aj","1","70","70","70","","","","","","","","","","","","","","","",""
"null","audio/wealth1.wav","null","audio-keyboard-response","270","2.1.0","370407","J=YES, F=NO","wz5fcnm3aj","1","70","70","70","","","","","","","","","","","","","","","",""
"1251","
          <p id=""word"" style=""font-size: 40px;"">possess</p>
          <p style=""font-size: 16px;"">J = YES &nbsp;&nbsp;&nbsp; F = NO</p>
        ","j","html-keyboard-response","271","2.1.0","371660","J=YES, F=NO","wz5fcnm3aj","1","70","70","70","","","","","","","","","possess","wealth1","literal","experimental","j","true","",""
"null","<p style=""font-size: 50px;"">+</p>","null","html-keyboard-response","272","2.1.0","371975","J=YES, F=NO","wz5fcnm3aj","1","70","70","70","","","","","","","","","","","","","","","",""
"null","audio/beep-329314.mp3","null","audio-keyboard-response","273","2.1.0","373507","J=YES, F=NO","wz5fcnm3aj","1","70","70","70","","","","","","","","","","","","","","","",""
"null","audio/size1.wav","null","audio-keyboard-response","274","2.1.0","374247","J=YES, F=NO","wz5fcnm3aj","1","70","70","70","","","","","","","","","","","","","","","",""
"707","
          <p id=""word"" style=""font-size: 40px;"">clear</p>
          <p style=""font-size: 16px;"">J = YES &nbsp;&nbsp;&nbsp; F = NO</p>
        ","j","html-keyboard-response","275","2.1.0","374954","J=YES, F=NO","wz5fcnm3aj","1","70","70","70","","","","","","","","","clear","size1","unrelated","experimental","j","true","",""
"null","<p style=""font-size: 50px;"">+</p>","null","html-keyboard-response","276","2.1.0","375255","J=YES, F=NO","wz5fcnm3aj","1","70","70","70","","","","","","","","","","","","","","","",""
"null","audio/beep-329314.mp3","null","audio-keyboard-response","277","2.1.0","376787","J=YES, F=NO","wz5fcnm3aj","1","70","70","70","","","","","","","","","","","","","","","",""
"null","audio/age1.wav","null","audio-keyboard-response","278","2.1.0","377327","J=YES, F=NO","wz5fcnm3aj","1","70","70","70","","","","","","","","","","","","","","","",""
"1019","
          <p id=""word"" style=""font-size: 40px;"">lachry</p>
          <p style=""font-size: 16px;"">J = YES &nbsp;&nbsp;&nbsp; F = NO</p>
        ","f","html-keyboard-response","279","2.1.0","378348","J=YES, F=NO","wz5fcnm3aj","1","70","70","70","","","","","","","","","lachry","age1","pseudoword","pseudoword","f","true","",""
"null","<p style=""font-size: 50px;"">+</p>","null","html-keyboard-response","280","2.1.0","378666","J=YES, F=NO","wz5fcnm3aj","1","70","70","70","","","","","","","","","","","","","","","",""
"null","audio/beep-329314.mp3","null","audio-keyboard-response","281","2.1.0","380207","J=YES, F=NO","wz5fcnm3aj","1","70","70","70","","","","","","","","","","","","","","","",""
"null","audio/tunnel.wav","null","audio-keyboard-response","282","2.1.0","380627","J=YES, F=NO","wz5fcnm3aj","1","70","70","70","","","","","","","","","","","","","","","",""
"806","
          <p id=""word"" style=""font-size: 40px;"">gred</p>
          <p style=""font-size: 16px;"">J = YES &nbsp;&nbsp;&nbsp; F = NO</p>
        ","j","html-keyboard-response","283","2.1.0","381434","J=YES, F=NO","wz5fcnm3aj","1","70","70","70","","","","","","","","","gred","tunnel","pseudoword","pseudoword","f","false","",""
"null","<p style=""font-size: 50px;"">+</p>","null","html-keyboard-response","284","2.1.0","381745","J=YES, F=NO","wz5fcnm3aj","1","70","70","70","","","","","","","","","","","","","","","",""
"null","audio/beep-329314.mp3","null","audio-keyboard-response","285","2.1.0","383287","J=YES, F=NO","wz5fcnm3aj","1","70","70","70","","","","","","","","","","","","","","","",""
"null","audio/gossip1.wav","null","audio-keyboard-response","286","2.1.0","383907","J=YES, F=NO","wz5fcnm3aj","1","70","70","70","","","","","","","","","","","","","","","",""
"983","
          <p id=""word"" style=""font-size: 40px;"">camerish</p>
          <p style=""font-size: 16px;"">J = YES &nbsp;&nbsp;&nbsp; F = NO</p>
        ","f","html-keyboard-response","287","2.1.0","384892","J=YES, F=NO","wz5fcnm3aj","1","70","70","70","","","","","","","","","camerish","gossip1","pseudoword","pseudoword","f","true","",""
"null","<p style=""font-size: 50px;"">+</p>","null","html-keyboard-response","288","2.1.0","385205","J=YES, F=NO","wz5fcnm3aj","1","70","70","70","","","","","","","","","","","","","","","",""
"null","audio/beep-329314.mp3","null","audio-keyboard-response","289","2.1.0","386747","J=YES, F=NO","wz5fcnm3aj","1","70","70","70","","","","","","","","","","","","","","","",""
"null","audio/fortune1.wav","null","audio-keyboard-response","290","2.1.0","387507","J=YES, F=NO","wz5fcnm3aj","1","70","70","70","","","","","","","","","","","","","","","",""
"703","
          <p id=""word"" style=""font-size: 40px;"">spend</p>
          <p style=""font-size: 16px;"">J = YES &nbsp;&nbsp;&nbsp; F = NO</p>
        ","j","html-keyboard-response","291","2.1.0","388212","J=YES, F=NO","wz5fcnm3aj","1","70","70","70","","","","","","","","","spend","fortune1","literal","experimental","j","true","",""
"null","<p style=""font-size: 50px;"">+</p>","null","html-keyboard-response","292","2.1.0","388515","J=YES, F=NO","wz5fcnm3aj","1","70","70","70","","","","","","","","","","","","","","","",""
"null","audio/beep-329314.mp3","null","audio-keyboard-response","293","2.1.0","390047","J=YES, F=NO","wz5fcnm3aj","1","70","70","70","","","","","","","","","","","","","","","",""
"null","audio/trust.wav","null","audio-keyboard-response","294","2.1.0","390667","J=YES, F=NO","wz5fcnm3aj","1","70","70","70","","","","","","","","","","","","","","","",""
"863","
          <p id=""word"" style=""font-size: 40px;"">swint</p>
          <p style=""font-size: 16px;"">J = YES &nbsp;&nbsp;&nbsp; F = NO</p>
        ","f","html-keyboard-response","295","2.1.0","391532","J=YES, F=NO","wz5fcnm3aj","1","70","70","70","","","","","","","","","swint","trust","pseudoword","pseudoword","f","true","",""
"2911","<p>Excellent! You have finished block 2 of 8.</p>
                     <p>Feel free to take a 30 second break.</p>
                     <p>Press any key when you're ready to continue.</p>"," ","html-keyboard-response","296","2.1.0","394444","J=YES, F=NO","wz5fcnm3aj","1","70","70","70","","","","","","","","","","","","","","","",""
"814","<p>Starting main block 3 of 8. Press any key to continue.</p>"," ","html-keyboard-response","297","2.1.0","395259","J=YES, F=NO","wz5fcnm3aj","1","70","70","70","","","","","","","","","","","","","","","",""
"null","<p style=""font-size: 50px;"">+</p>","null","html-keyboard-response","298","2.1.0","395566","J=YES, F=NO","wz5fcnm3aj","1","70","70","70","","","","","","","","","","","","","","","",""
"null","audio/beep-329314.mp3","null","audio-keyboard-response","299","2.1.0","397107","J=YES, F=NO","wz5fcnm3aj","1","70","70","70","","","","","","","","","","","","","","","",""
"null","audio/arm.wav","null","audio-keyboard-response","300","2.1.0","397647","J=YES, F=NO","wz5fcnm3aj","1","70","70","70","","","","","","","","","","","","","","","",""
"939","
          <p id=""word"" style=""font-size: 40px;"">pigne</p>
          <p style=""font-size: 16px;"">J = YES &nbsp;&nbsp;&nbsp; F = NO</p>
        ","f","html-keyboard-response","301","2.1.0","398587","J=YES, F=NO","wz5fcnm3aj","1","70","70","70","","","","","","","","","pigne","arm","pseudoword","pseudoword","f","true","",""
"null","<p style=""font-size: 50px;"">+</p>","null","html-keyboard-response","302","2.1.0","398905","J=YES, F=NO","wz5fcnm3aj","1","70","70","70","","","","","","","","","","","","","","","",""
"null","audio/beep-329314.mp3","null","audio-keyboard-response","303","2.1.0","400447","J=YES, F=NO","wz5fcnm3aj","1","70","70","70","","","","","","","","","","","","","","","",""
"null","audio/menu.wav","null","audio-keyboard-response","304","2.1.0","401007","J=YES, F=NO","wz5fcnm3aj","1","70","70","70","","","","","","","","","","","","","","","",""
"723","
          <p id=""word"" style=""font-size: 40px;"">slice</p>
          <p style=""font-size: 16px;"">J = YES &nbsp;&nbsp;&nbsp; F = NO</p>
        ","j","html-keyboard-response","305","2.1.0","401732","J=YES, F=NO","wz5fcnm3aj","1","70","70","70","","","","","","","","","slice","menu","filler","filler","j","true","",""
"null","<p style=""font-size: 50px;"">+</p>","null","html-keyboard-response","306","2.1.0","402035","J=YES, F=NO","wz5fcnm3aj","1","70","70","70","","","","","","","","","","","","","","","",""
"null","audio/beep-329314.mp3","null","audio-keyboard-response","307","2.1.0","403567","J=YES, F=NO","wz5fcnm3aj","1","70","70","70","","","","","","","","","","","","","","","",""
"null","audio/handle.wav","null","audio-keyboard-response","308","2.1.0","404187","J=YES, F=NO","wz5fcnm3aj","1","70","70","70","","","","","","","","","","","","","","","",""
"983","
          <p id=""word"" style=""font-size: 40px;"">moutes</p>
          <p style=""font-size: 16px;"">J = YES &nbsp;&nbsp;&nbsp; F = NO</p>
        ","f","html-keyboard-response","309","2.1.0","405172","J=YES, F=NO","wz5fcnm3aj","1","70","70","70","","","","","","","","","moutes","handle","pseudoword","pseudoword","f","true","",""
"null","<p style=""font-size: 50px;"">+</p>","null","html-keyboard-response","310","2.1.0","405486","J=YES, F=NO","wz5fcnm3aj","1","70","70","70","","","","","","","","","","","","","","","",""
"null","audio/beep-329314.mp3","null","audio-keyboard-response","311","2.1.0","407027","J=YES, F=NO","wz5fcnm3aj","1","70","70","70","","","","","","","","","","","","","","","",""
"null","audio/winter.wav","null","audio-keyboard-response","312","2.1.0","407587","J=YES, F=NO","wz5fcnm3aj","1","70","70","70","","","","","","","","","","","","","","","",""
"1151","
          <p id=""word"" style=""font-size: 40px;"">straven</p>
          <p style=""font-size: 16px;"">J = YES &nbsp;&nbsp;&nbsp; F = NO</p>
        ","f","html-keyboard-response","313","2.1.0","408740","J=YES, F=NO","wz5fcnm3aj","1","70","70","70","","","","","","","","","straven","winter","pseudoword","pseudoword","f","true","",""
"null","<p style=""font-size: 50px;"">+</p>","null","html-keyboard-response","314","2.1.0","409055","J=YES, F=NO","wz5fcnm3aj","1","70","70","70","","","","","","","","","","","","","","","",""
"null","audio/beep-329314.mp3","null","audio-keyboard-response","315","2.1.0","410587","J=YES, F=NO","wz5fcnm3aj","1","70","70","70","","","","","","","","","","","","","","","",""
"null","audio/account1.wav","null","audio-keyboard-response","316","2.1.0","411267","J=YES, F=NO","wz5fcnm3aj","1","70","70","70","","","","","","","","","","","","","","","",""
"1031","
          <p id=""word"" style=""font-size: 40px;"">paint</p>
          <p style=""font-size: 16px;"">J = YES &nbsp;&nbsp;&nbsp; F = NO</p>
        ","j","html-keyboard-response","317","2.1.0","412300","J=YES, F=NO","wz5fcnm3aj","1","70","70","70","","","","","","","","","paint","account1","filler","filler","j","true","",""
"null","<p style=""font-size: 50px;"">+</p>","null","html-keyboard-response","318","2.1.0","412606","J=YES, F=NO","wz5fcnm3aj","1","70","70","70","","","","","","","","","","","","","","","",""
"null","audio/beep-329314.mp3","null","audio-keyboard-response","319","2.1.0","414147","J=YES, F=NO","wz5fcnm3aj","1","70","70","70","","","","","","","","","","","","","","","",""
"null","audio/belief.wav","null","audio-keyboard-response","320","2.1.0","414767","J=YES, F=NO","wz5fcnm3aj","1","70","70","70","","","","","","","","","","","","","","","",""
"1132","
          <p id=""word"" style=""font-size: 40px;"">share</p>
          <p style=""font-size: 16px;"">J = YES &nbsp;&nbsp;&nbsp; F = NO</p>
        ","j","html-keyboard-response","321","2.1.0","415900","J=YES, F=NO","wz5fcnm3aj","1","70","70","70","","","","","","","","","share","belief","metaphor","experimental","j","true","",""
"null","<p style=""font-size: 50px;"">+</p>","null","html-keyboard-response","322","2.1.0","416215","J=YES, F=NO","wz5fcnm3aj","1","70","70","70","","","","","","","","","","","","","","","",""
"null","audio/beep-329314.mp3","null","audio-keyboard-response","323","2.1.0","417747","J=YES, F=NO","wz5fcnm3aj","1","70","70","70","","","","","","","","","","","","","","","",""
"null","audio/tomato.wav","null","audio-keyboard-response","324","2.1.0","418407","J=YES, F=NO","wz5fcnm3aj","1","70","70","70","","","","","","","","","","","","","","","",""
"1131","
          <p id=""word"" style=""font-size: 40px;"">gladies</p>
          <p style=""font-size: 16px;"">J = YES &nbsp;&nbsp;&nbsp; F = NO</p>
        ","j","html-keyboard-response","325","2.1.0","419540","J=YES, F=NO","wz5fcnm3aj","1","70","70","70","","","","","","","","","gladies","tomato","pseudoword","pseudoword","f","false","",""
"null","<p style=""font-size: 50px;"">+</p>","null","html-keyboard-response","326","2.1.0","419855","J=YES, F=NO","wz5fcnm3aj","1","70","70","70","","","","","","","","","","","","","","","",""
"null","audio/beep-329314.mp3","null","audio-keyboard-response","327","2.1.0","421387","J=YES, F=NO","wz5fcnm3aj","1","70","70","70","","","","","","","","","","","","","","","",""
"null","audio/floor.wav","null","audio-keyboard-response","328","2.1.0","421927","J=YES, F=NO","wz5fcnm3aj","1","70","70","70","","","","","","","","","","","","","","","",""
"883","
          <p id=""word"" style=""font-size: 40px;"">mop</p>
          <p style=""font-size: 16px;"">J = YES &nbsp;&nbsp;&nbsp; F = NO</p>
        ","j","html-keyboard-response","329","2.1.0","422812","J=YES, F=NO","wz5fcnm3aj","1","70","70","70","","","","","","","","","mop","floor","filler","filler","j","true","",""
"null","<p style=""font-size: 50px;"">+</p>","null","html-keyboard-response","330","2.1.0","423125","J=YES, F=NO","wz5fcnm3aj","1","70","70","70","","","","","","","","","","","","","","","",""
"null","audio/beep-329314.mp3","null","audio-keyboard-response","331","2.1.0","424667","J=YES, F=NO","wz5fcnm3aj","1","70","70","70","","","","","","","","","","","","","","","",""
"null","audio/cash1.wav","null","audio-keyboard-response","332","2.1.0","425227","J=YES, F=NO","wz5fcnm3aj","1","70","70","70","","","","","","","","","","","","","","","",""
"1102","
          <p id=""word"" style=""font-size: 40px;"">splear</p>
          <p style=""font-size: 16px;"">J = YES &nbsp;&nbsp;&nbsp; F = NO</p>
        ","f","html-keyboard-response","333","2.1.0","426330","J=YES, F=NO","wz5fcnm3aj","1","70","70","70","","","","","","","","","splear","cash1","pseudoword","pseudoword","f","true","",""
"null","<p style=""font-size: 50px;"">+</p>","null","html-keyboard-response","334","2.1.0","426635","J=YES, F=NO","wz5fcnm3aj","1","70","70","70","","","","","","","","","","","","","","","",""
"null","audio/beep-329314.mp3","null","audio-keyboard-response","335","2.1.0","428167","J=YES, F=NO","wz5fcnm3aj","1","70","70","70","","","","","","","","","","","","","","","",""
"null","audio/corpse1.wav","null","audio-keyboard-response","336","2.1.0","428787","J=YES, F=NO","wz5fcnm3aj","1","70","70","70","","","","","","","","","","","","","","","",""
"1000","
          <p id=""word"" style=""font-size: 40px;"">bury</p>
          <p style=""font-size: 16px;"">J = YES &nbsp;&nbsp;&nbsp; F = NO</p>
        ","j","html-keyboard-response","337","2.1.0","429788","J=YES, F=NO","wz5fcnm3aj","1","70","70","70","","","","","","","","","bury","corpse1","literal","experimental","j","true","",""
"null","<p style=""font-size: 50px;"">+</p>","null","html-keyboard-response","338","2.1.0","430095","J=YES, F=NO","wz5fcnm3aj","1","70","70","70","","","","","","","","","","","","","","","",""
"null","audio/beep-329314.mp3","null","audio-keyboard-response","339","2.1.0","431627","J=YES, F=NO","wz5fcnm3aj","1","70","70","70","","","","","","","","","","","","","","","",""
"null","audio/stain.wav","null","audio-keyboard-response","340","2.1.0","432267","J=YES, F=NO","wz5fcnm3aj","1","70","70","70","","","","","","","","","","","","","","","",""
"1087","
          <p id=""word"" style=""font-size: 40px;"">rumpsied</p>
          <p style=""font-size: 16px;"">J = YES &nbsp;&nbsp;&nbsp; F = NO</p>
        ","f","html-keyboard-response","341","2.1.0","433356","J=YES, F=NO","wz5fcnm3aj","1","70","70","70","","","","","","","","","rumpsied","stain","pseudoword","pseudoword","f","true","",""
"null","<p style=""font-size: 50px;"">+</p>","null","html-keyboard-response","342","2.1.0","433665","J=YES, F=NO","wz5fcnm3aj","1","70","70","70","","","","","","","","","","","","","","","",""
"null","audio/beep-329314.mp3","null","audio-keyboard-response","343","2.1.0","435207","J=YES, F=NO","wz5fcnm3aj","1","70","70","70","","","","","","","","","","","","","","","",""
"null","audio/show.wav","null","audio-keyboard-response","344","2.1.0","435747","J=YES, F=NO","wz5fcnm3aj","1","70","70","70","","","","","","","","","","","","","","","",""
"863","
          <p id=""word"" style=""font-size: 40px;"">hold</p>
          <p style=""font-size: 16px;"">J = YES &nbsp;&nbsp;&nbsp; F = NO</p>
        ","j","html-keyboard-response","345","2.1.0","436612","J=YES, F=NO","wz5fcnm3aj","1","70","70","70","","","","","","","","","hold","show","metaphor","experimental","j","true","",""
"null","<p style=""font-size: 50px;"">+</p>","null","html-keyboard-response","346","2.1.0","436925","J=YES, F=NO","wz5fcnm3aj","1","70","70","70","","","","","","","","","","","","","","","",""
"null","audio/beep-329314.mp3","null","audio-keyboard-response","347","2.1.0","438467","J=YES, F=NO","wz5fcnm3aj","1","70","70","70","","","","","","","","","","","","","","","",""
"null","audio/hotel1.wav","null","audio-keyboard-response","348","2.1.0","439087","J=YES, F=NO","wz5fcnm3aj","1","70","70","70","","","","","","","","","","","","","","","",""
"1180","
          <p id=""word"" style=""font-size: 40px;"">flanter</p>
          <p style=""font-size: 16px;"">J = YES &nbsp;&nbsp;&nbsp; F = NO</p>
        ","j","html-keyboard-response","349","2.1.0","440269","J=YES, F=NO","wz5fcnm3aj","1","70","70","70","","","","","","","","","flanter","hotel1","pseudoword","pseudoword","f","false","",""
"null","<p style=""font-size: 50px;"">+</p>","null","html-keyboard-response","350","2.1.0","440585","J=YES, F=NO","wz5fcnm3aj","1","70","70","70","","","","","","","","","","","","","","","",""
"null","audio/beep-329314.mp3","null","audio-keyboard-response","351","2.1.0","442127","J=YES, F=NO","wz5fcnm3aj","1","70","70","70","","","","","","","","","","","","","","","",""
"null","audio/ankle1.wav","null","audio-keyboard-response","352","2.1.0","442647","J=YES, F=NO","wz5fcnm3aj","1","70","70","70","","","","","","","","","","","","","","","",""
"828","
          <p id=""word"" style=""font-size: 40px;"">kick</p>
          <p style=""font-size: 16px;"">J = YES &nbsp;&nbsp;&nbsp; F = NO</p>
        ","j","html-keyboard-response","353","2.1.0","443476","J=YES, F=NO","wz5fcnm3aj","1","70","70","70","","","","","","","","","kick","ankle1","filler","filler","j","true","",""
"null","<p style=""font-size: 50px;"">+</p>","null","html-keyboard-response","354","2.1.0","443795","J=YES, F=NO","wz5fcnm3aj","1","70","70","70","","","","","","","","","","","","","","","",""
"null","audio/beep-329314.mp3","null","audio-keyboard-response","355","2.1.0","445327","J=YES, F=NO","wz5fcnm3aj","1","70","70","70","","","","","","","","","","","","","","","",""
"null","audio/bottle.wav","null","audio-keyboard-response","356","2.1.0","445787","J=YES, F=NO","wz5fcnm3aj","1","70","70","70","","","","","","","","","","","","","","","",""
"799","
          <p id=""word"" style=""font-size: 40px;"">watch</p>
          <p style=""font-size: 16px;"">J = YES &nbsp;&nbsp;&nbsp; F = NO</p>
        ","j","html-keyboard-response","357","2.1.0","446588","J=YES, F=NO","wz5fcnm3aj","1","70","70","70","","","","","","","","","watch","bottle","filler","filler","j","true","",""
"null","<p style=""font-size: 50px;"">+</p>","null","html-keyboard-response","358","2.1.0","446895","J=YES, F=NO","wz5fcnm3aj","1","70","70","70","","","","","","","","","","","","","","","",""
"null","audio/beep-329314.mp3","null","audio-keyboard-response","359","2.1.0","448427","J=YES, F=NO","wz5fcnm3aj","1","70","70","70","","","","","","","","","","","","","","","",""
"null","audio/breath.wav","null","audio-keyboard-response","360","2.1.0","448987","J=YES, F=NO","wz5fcnm3aj","1","70","70","70","","","","","","","","","","","","","","","",""
"807","
          <p id=""word"" style=""font-size: 40px;"">pack</p>
          <p style=""font-size: 16px;"">J = YES &nbsp;&nbsp;&nbsp; F = NO</p>
        ","j","html-keyboard-response","361","2.1.0","449796","J=YES, F=NO","wz5fcnm3aj","1","70","70","70","","","","","","","","","pack","breath","filler","filler","j","true","",""
"6527","<p>Excellent! You have finished block 3 of 8.</p>
                     <p>Feel free to take a 30 second break.</p>
                     <p>Press any key when you're ready to continue.</p>"," ","html-keyboard-response","362","2.1.0","456324","J=YES, F=NO","wz5fcnm3aj","1","70","70","70","","","","","","","","","","","","","","","",""
"1382","<p>Starting main block 4 of 8. Press any key to continue.</p>"," ","html-keyboard-response","363","2.1.0","457707","J=YES, F=NO","wz5fcnm3aj","1","70","70","70","","","","","","","","","","","","","","","",""
"null","<p style=""font-size: 50px;"">+</p>","null","html-keyboard-response","364","2.1.0","458025","J=YES, F=NO","wz5fcnm3aj","1","70","70","70","","","","","","","","","","","","","","","",""
"null","audio/beep-329314.mp3","null","audio-keyboard-response","365","2.1.0","459567","J=YES, F=NO","wz5fcnm3aj","1","70","70","70","","","","","","","","","","","","","","","",""
"null","audio/chance.wav","null","audio-keyboard-response","366","2.1.0","460186","J=YES, F=NO","wz5fcnm3aj","1","70","70","70","","","","","","","","","","","","","","","",""
"1033","
          <p id=""word"" style=""font-size: 40px;"">seize</p>
          <p style=""font-size: 16px;"">J = YES &nbsp;&nbsp;&nbsp; F = NO</p>
        ","j","html-keyboard-response","367","2.1.0","461220","J=YES, F=NO","wz5fcnm3aj","1","70","70","70","","","","","","","","","seize","chance","metaphor","experimental","j","true","",""
"null","<p style=""font-size: 50px;"">+</p>","null","html-keyboard-response","368","2.1.0","461535","J=YES, F=NO","wz5fcnm3aj","1","70","70","70","","","","","","","","","","","","","","","",""
"null","audio/beep-329314.mp3","null","audio-keyboard-response","369","2.1.0","463067","J=YES, F=NO","wz5fcnm3aj","1","70","70","70","","","","","","","","","","","","","","","",""
"null","audio/baby.wav","null","audio-keyboard-response","370","2.1.0","463527","J=YES, F=NO","wz5fcnm3aj","1","70","70","70","","","","","","","","","","","","","","","",""
"1163","
          <p id=""word"" style=""font-size: 40px;"">lift</p>
          <p style=""font-size: 16px;"">J = YES &nbsp;&nbsp;&nbsp; F = NO</p>
        ","j","html-keyboard-response","371","2.1.0","464692","J=YES, F=NO","wz5fcnm3aj","1","70","70","70","","","","","","","","","lift","baby","filler","filler","j","true","",""
"null","<p style=""font-size: 50px;"">+</p>","null","html-keyboard-response","372","2.1.0","465015","J=YES, F=NO","wz5fcnm3aj","1","70","70","70","","","","","","","","","","","","","","","",""
"null","audio/beep-329314.mp3","null","audio-keyboard-response","373","2.1.0","466547","J=YES, F=NO","wz5fcnm3aj","1","70","70","70","","","","","","","","","","","","","","","",""
"null","audio/corpse1.wav","null","audio-keyboard-response","374","2.1.0","467167","J=YES, F=NO","wz5fcnm3aj","1","70","70","70","","","","","","","","","","","","","","","",""
"826","
          <p id=""word"" style=""font-size: 40px;"">glonet</p>
          <p style=""font-size: 16px;"">J = YES &nbsp;&nbsp;&nbsp; F = NO</p>
        ","f","html-keyboard-response","375","2.1.0","467994","J=YES, F=NO","wz5fcnm3aj","1","70","70","70","","","","","","","","","glonet","corpse1","pseudoword","pseudoword","f","true","",""
"null","<p style=""font-size: 50px;"">+</p>","null","html-keyboard-response","376","2.1.0","468315","J=YES, F=NO","wz5fcnm3aj","1","70","70","70","","","","","","","","","","","","","","","",""
"null","audio/beep-329314.mp3","null","audio-keyboard-response","377","2.1.0","469847","J=YES, F=NO","wz5fcnm3aj","1","70","70","70","","","","","","","","","","","","","","","",""
"null","audio/desire.wav","null","audio-keyboard-response","378","2.1.0","470467","J=YES, F=NO","wz5fcnm3aj","1","70","70","70","","","","","","","","","","","","","","","",""
"975","
          <p id=""word"" style=""font-size: 40px;"">nophed</p>
          <p style=""font-size: 16px;"">J = YES &nbsp;&nbsp;&nbsp; F = NO</p>
        ","f","html-keyboard-response","379","2.1.0","471444","J=YES, F=NO","wz5fcnm3aj","1","70","70","70","","","","","","","","","nophed","desire","pseudoword","pseudoword","f","true","",""
"null","<p style=""font-size: 50px;"">+</p>","null","html-keyboard-response","380","2.1.0","471745","J=YES, F=NO","wz5fcnm3aj","1","70","70","70","","","","","","","","","","","","","","","",""
"null","audio/beep-329314.mp3","null","audio-keyboard-response","381","2.1.0","473286","J=YES, F=NO","wz5fcnm3aj","1","70","70","70","","","","","","","","","","","","","","","",""
"null","audio/story.wav","null","audio-keyboard-response","382","2.1.0","473947","J=YES, F=NO","wz5fcnm3aj","1","70","70","70","","","","","","","","","","","","","","","",""
"623","
          <p id=""word"" style=""font-size: 40px;"">cover</p>
          <p style=""font-size: 16px;"">J = YES &nbsp;&nbsp;&nbsp; F = NO</p>
        ","j","html-keyboard-response","383","2.1.0","474572","J=YES, F=NO","wz5fcnm3aj","1","70","70","70","","","","","","","","","cover","story","metaphor","experimental","j","true","",""
"null","<p style=""font-size: 50px;"">+</p>","null","html-keyboard-response","384","2.1.0","474875","J=YES, F=NO","wz5fcnm3aj","1","70","70","70","","","","","","","","","","","","","","","",""
"null","audio/beep-329314.mp3","null","audio-keyboard-response","385","2.1.0","476407","J=YES, F=NO","wz5fcnm3aj","1","70","70","70","","","","","","","","","","","","","","","",""
"null","audio/camera1.wav","null","audio-keyboard-response","386","2.1.0","476887","J=YES, F=NO","wz5fcnm3aj","1","70","70","70","","","","","","","","","","","","","","","",""
"634","
          <p id=""word"" style=""font-size: 40px;"">bring</p>
          <p style=""font-size: 16px;"">J = YES &nbsp;&nbsp;&nbsp; F = NO</p>
        ","j","html-keyboard-response","387","2.1.0","477522","J=YES, F=NO","wz5fcnm3aj","1","70","70","70","","","","","","","","","bring","camera1","literal","experimental","j","true","",""
"null","<p style=""font-size: 50px;"">+</p>","null","html-keyboard-response","388","2.1.0","477825","J=YES, F=NO","wz5fcnm3aj","1","70","70","70","","","","","","","","","","","","","","","",""
"null","audio/beep-329314.mp3","null","audio-keyboard-response","389","2.1.0","479367","J=YES, F=NO","wz5fcnm3aj","1","70","70","70","","","","","","","","","","","","","","","",""
"null","audio/weight1.wav","null","audio-keyboard-response","390","2.1.0","479887","J=YES, F=NO","wz5fcnm3aj","1","70","70","70","","","","","","","","","","","","","","","",""
"827","
          <p id=""word"" style=""font-size: 40px;"">crimsh</p>
          <p style=""font-size: 16px;"">J = YES &nbsp;&nbsp;&nbsp; F = NO</p>
