"rt","stimulus","response","trial_type","trial_index","plugin_version","time_elapsed","response_mapping","subject_id","list_index","lextale_score","lextale_word_score","lextale_nonword_score","success","timeout","failed_images","failed_audio","failed_video","task","isWord","isDummy","target","prime","prime_type","stimulus_type","correct_response","correct","section","question_order"
"38748","
    <div style=""max-width: 800px; margin: auto; text-align: left;"">
      <h2>STANFORD UNIVERSITY</h2>
      <h3>Research Information Sheet</h3>
      <p><strong>Protocol Director:</strong> Robert Hawkins<br>
      <strong>Protocol Title:</strong> Communication and social cognition in natural audiovisual contexts<br>
      <strong>IRB#:</strong> 77226</p>

      <p><strong>DESCRIPTION:</strong> You are invited to participate in a research study about language and communication. The purpose of the research is to understand how you interact and communicate with other people in naturalistic settings as a fluent English speaker. This research will be conducted through the Prolific platform, including participants from the US, UK, and Canada. If you decide to participate in this research, you will play a communication game in a group with one or more partners.</p>

      <p><strong>TIME INVOLVEMENT:</strong> The task will last the amount of time advertised on Prolific. You are free to withdraw from the study at any time.</p>

      <p><strong>RISKS AND BENEFITS:</strong> You may become frustrated if your partner gets distracted, or experience discomfort if other participants in your group send text that is inappropriate for the task. We ask you to please be respectful of other participants you might be interacting with to mitigate these risks. You may also experience discomfort when being asked to discuss or challenge emotionally salient political beliefs. Study data will be stored securely, in compliance with Stanford University standards, minimizing the risk of confidentiality breach. This study advances our scientific understanding of how people communicate and collaborate in naturalistic settings. This study may lead to further insights about what can go wrong in teamwork, suggest potential interventions to overcome these barriers, and help to develop assistive technologies that collaborate with human partners. We cannot and do not guarantee or promise that you will receive any benefits from this study.</p>

      <p><strong>PAYMENTS:</strong> You will receive payment in the amount advertised on Prolific. If you do not complete this study, you will receive prorated payment based on the time that you have spent. Additionally, you may be eligible for bonus payments as described in the instructions.</p>

      <p><strong>PARTICIPANT’S RIGHTS:</strong> If you have read this form and have decided to participate in this project, please understand your participation is voluntary and you have the right to withdraw your consent or discontinue participation at any time without penalty or loss of benefits to which you are otherwise entitled. The alternative is not to participate. You have the right to refuse to answer particular questions. The results of this research study may be presented at scientific or professional meetings or published in scientific journals. Your individual privacy will be maintained in all published and written data resulting from the study. In accordance with scientific norms, the data from this study may be used or shared with other researchers for future research (after removing personally identifying information) without additional consent from you.</p>

      <p><strong>CONTACT INFORMATION:</strong><br>
      Questions: If you have any questions, concerns or complaints about this research, its procedures, risks and benefits, contact the Protocol Director, Robert Hawkins (<a href=""mailto:rdhawkins@stanford.edu"">rdhawkins@stanford.edu</a>, 217-549-6923).<br>
      Independent Contact: If you are not satisfied with how this study is being conducted, or if you have any concerns, complaints, or general questions about the research or your rights as a participant, please contact the Stanford Institutional Review Board (IRB) to speak to someone independent of the research team at 650-723-2480 or toll free at 1-866-680-2906, or email at <a href=""mailto:irbnon-med@stanford.edu"">irbnon-med@stanford.edu</a>. You can also write to the Stanford IRB, Stanford University, 1705 El Camino Real, Palo Alto, CA 94306.</p>

      <p><strong>Please save or print a copy of this page for your records.</strong></p>
      <p>If you agree to participate in this research, click ""Continue"" below.</p>
    </div>
  ","0","html-button-response","0","2.1.0","38768","F=YES, J=NO","x1tj8t00v4","0","74","68","80","","","","","","","","","","","","","","","",""
"19905","
    <div style=""max-width: 800px; margin: auto; text-align: left;"">
      <h2>Welcome!</h2>
      <p>Thank you for participating in this study. The experiment consists of three parts:</p>
      <ol>
        <li>An English vocabulary test</li>
        <li>A main task in which you will hear and see words, and decide whether the written word is a real English word</li>
        <li>A brief survey about your background</li>
      </ol>
      <p>Each part will be introduced before it begins.</p>
      <p>Please make sure you are in a quiet environment and can hear audio clearly for the final task.</p>
      <p style=""margin-top: 2em;"">Press any key to begin.</p>
    </div>
  "," ","html-keyboard-response","1","2.1.0","58678","F=YES, J=NO","x1tj8t00v4","0","74","68","80","","","","","","","","","","","","","","","",""
"","","","preload","2","2.1.0","61075","F=YES, J=NO","x1tj8t00v4","0","74","68","80","true","false","[]","[]","[]","","","","","","","","","","",""
"8539","
    <div style=""max-width: 800px; margin: auto; text-align: left;"">
      <h2>Part 1: Vocabulary Test</h2>
      <p>You will now complete the first part of the study: a short English vocabulary test.</p>
      <p>This test is called <strong>LexTALE</strong> and helps us get a general sense of your English proficiency.</p>
      <p style=""margin-top: 2em;"">Press any key to continue.</p>
    </div>
  "," ","html-keyboard-response","3","2.1.0","69616","F=YES, J=NO","x1tj8t00v4","0","74","68","80","","","","","","","","","","","","","","","",""
"14863","
    <div style=""max-width: 800px; margin: auto; text-align: left;"">
      <h2>LexTALE Vocabulary Test</h2>
      <p>In this test, you will see a series of letter strings—one at a time.</p>
      <p>Your task is to decide whether each string is a real English word.</p>
      <p><strong>Key responses:</strong></p>
      <ul>
        <li><strong>F</strong> = YES (real English word)</li>
        <li><strong>J</strong> = NO (not a real English word)</li>
      </ul>
      <p>There is no time limit, but please try to be accurate.</p>
      <p style=""margin-top: 2em;"">Press any key to begin.</p>
    </div>
  ","j","html-keyboard-response","4","2.1.0","84480","F=YES, J=NO","x1tj8t00v4","0","74","68","80","","","","","","","","","","","","","","","",""
"1769","
  <p style=""font-size: 40px;"">platery</p>
  <p style=""font-size: 16px;"">F = YES &nbsp;&nbsp;&nbsp; J = NO</p>
","f","html-keyboard-response","5","2.1.0","86251","F=YES, J=NO","x1tj8t00v4","0","74","68","80","","","","","","lextale","false","true","","","","","","","",""
"1005","
  <p style=""font-size: 40px;"">denial</p>
  <p style=""font-size: 16px;"">F = YES &nbsp;&nbsp;&nbsp; J = NO</p>
","f","html-keyboard-response","6","2.1.0","87258","F=YES, J=NO","x1tj8t00v4","0","74","68","80","","","","","","lextale","true","true","","","","","","","",""
"1181","
  <p style=""font-size: 40px;"">marrit</p>
  <p style=""font-size: 16px;"">F = YES &nbsp;&nbsp;&nbsp; J = NO</p>
","j","html-keyboard-response","7","2.1.0","88440","F=YES, J=NO","x1tj8t00v4","0","74","68","80","","","","","","lextale","false","true","","","","","","","",""
"798","
  <p style=""font-size: 40px;"">bottle</p>
  <p style=""font-size: 16px;"">F = YES &nbsp;&nbsp;&nbsp; J = NO</p>
","f","html-keyboard-response","8","2.1.0","89239","F=YES, J=NO","x1tj8t00v4","0","74","68","80","","","","","","lextale","true","false","","","","","","","",""
"940","
  <p style=""font-size: 40px;"">birst</p>
  <p style=""font-size: 16px;"">F = YES &nbsp;&nbsp;&nbsp; J = NO</p>
","j","html-keyboard-response","9","2.1.0","90181","F=YES, J=NO","x1tj8t00v4","0","74","68","80","","","","","","lextale","false","false","","","","","","","",""
"1240","
  <p style=""font-size: 40px;"">envy</p>
  <p style=""font-size: 16px;"">F = YES &nbsp;&nbsp;&nbsp; J = NO</p>
","f","html-keyboard-response","10","2.1.0","91423","F=YES, J=NO","x1tj8t00v4","0","74","68","80","","","","","","lextale","true","false","","","","","","","",""
"801","
  <p style=""font-size: 40px;"">brang</p>
  <p style=""font-size: 16px;"">F = YES &nbsp;&nbsp;&nbsp; J = NO</p>
","j","html-keyboard-response","11","2.1.0","92226","F=YES, J=NO","x1tj8t00v4","0","74","68","80","","","","","","lextale","false","false","","","","","","","",""
"1656","
  <p style=""font-size: 40px;"">huge</p>
  <p style=""font-size: 16px;"">F = YES &nbsp;&nbsp;&nbsp; J = NO</p>
","f","html-keyboard-response","12","2.1.0","93884","F=YES, J=NO","x1tj8t00v4","0","74","68","80","","","","","","lextale","true","false","","","","","","","",""
"1039","
  <p style=""font-size: 40px;"">plove</p>
  <p style=""font-size: 16px;"">F = YES &nbsp;&nbsp;&nbsp; J = NO</p>
","j","html-keyboard-response","13","2.1.0","94926","F=YES, J=NO","x1tj8t00v4","0","74","68","80","","","","","","lextale","false","false","","","","","","","",""
"852","
  <p style=""font-size: 40px;"">border</p>
  <p style=""font-size: 16px;"">F = YES &nbsp;&nbsp;&nbsp; J = NO</p>
","f","html-keyboard-response","14","2.1.0","95779","F=YES, J=NO","x1tj8t00v4","0","74","68","80","","","","","","lextale","true","false","","","","","","","",""
"884","
  <p style=""font-size: 40px;"">flimsy</p>
  <p style=""font-size: 16px;"">F = YES &nbsp;&nbsp;&nbsp; J = NO</p>
","j","html-keyboard-response","15","2.1.0","96665","F=YES, J=NO","x1tj8t00v4","0","74","68","80","","","","","","lextale","true","false","","","","","","","",""
"957","
  <p style=""font-size: 40px;"">drain</p>
  <p style=""font-size: 16px;"">F = YES &nbsp;&nbsp;&nbsp; J = NO</p>
","f","html-keyboard-response","16","2.1.0","97623","F=YES, J=NO","x1tj8t00v4","0","74","68","80","","","","","","lextale","true","false","","","","","","","",""
"1372","
  <p style=""font-size: 40px;"">twindle</p>
  <p style=""font-size: 16px;"">F = YES &nbsp;&nbsp;&nbsp; J = NO</p>
","j","html-keyboard-response","17","2.1.0","98998","F=YES, J=NO","x1tj8t00v4","0","74","68","80","","","","","","lextale","false","false","","","","","","","",""
"1009","
  <p style=""font-size: 40px;"">propose</p>
  <p style=""font-size: 16px;"">F = YES &nbsp;&nbsp;&nbsp; J = NO</p>
","f","html-keyboard-response","18","2.1.0","100009","F=YES, J=NO","x1tj8t00v4","0","74","68","80","","","","","","lextale","true","false","","","","","","","",""
"1707","
  <p style=""font-size: 40px;"">forlay</p>
  <p style=""font-size: 16px;"">F = YES &nbsp;&nbsp;&nbsp; J = NO</p>
","j","html-keyboard-response","19","2.1.0","101717","F=YES, J=NO","x1tj8t00v4","0","74","68","80","","","","","","lextale","false","false","","","","","","","",""
"1292","
  <p style=""font-size: 40px;"">tenant</p>
  <p style=""font-size: 16px;"">F = YES &nbsp;&nbsp;&nbsp; J = NO</p>
","f","html-keyboard-response","20","2.1.0","103011","F=YES, J=NO","x1tj8t00v4","0","74","68","80","","","","","","lextale","true","false","","","","","","","",""
"748","
  <p style=""font-size: 40px;"">strain</p>
  <p style=""font-size: 16px;"">F = YES &nbsp;&nbsp;&nbsp; J = NO</p>
","f","html-keyboard-response","21","2.1.0","103761","F=YES, J=NO","x1tj8t00v4","0","74","68","80","","","","","","lextale","true","false","","","","","","","",""
"904","
  <p style=""font-size: 40px;"">holster</p>
  <p style=""font-size: 16px;"">F = YES &nbsp;&nbsp;&nbsp; J = NO</p>
","j","html-keyboard-response","22","2.1.0","104666","F=YES, J=NO","x1tj8t00v4","0","74","68","80","","","","","","lextale","true","false","","","","","","","",""
"1787","
  <p style=""font-size: 40px;"">hinder</p>
  <p style=""font-size: 16px;"">F = YES &nbsp;&nbsp;&nbsp; J = NO</p>
","f","html-keyboard-response","23","2.1.0","106455","F=YES, J=NO","x1tj8t00v4","0","74","68","80","","","","","","lextale","true","false","","","","","","","",""
"1688","
  <p style=""font-size: 40px;"">swindle</p>
  <p style=""font-size: 16px;"">F = YES &nbsp;&nbsp;&nbsp; J = NO</p>
","j","html-keyboard-response","24","2.1.0","108144","F=YES, J=NO","x1tj8t00v4","0","74","68","80","","","","","","lextale","true","false","","","","","","","",""
"1124","
  <p style=""font-size: 40px;"">nuder</p>
  <p style=""font-size: 16px;"">F = YES &nbsp;&nbsp;&nbsp; J = NO</p>
","j","html-keyboard-response","25","2.1.0","109270","F=YES, J=NO","x1tj8t00v4","0","74","68","80","","","","","","lextale","false","false","","","","","","","",""
"870","
  <p style=""font-size: 40px;"">pillow</p>
  <p style=""font-size: 16px;"">F = YES &nbsp;&nbsp;&nbsp; J = NO</p>
","f","html-keyboard-response","26","2.1.0","110142","F=YES, J=NO","x1tj8t00v4","0","74","68","80","","","","","","lextale","true","false","","","","","","","",""
"1259","
  <p style=""font-size: 40px;"">shumble</p>
  <p style=""font-size: 16px;"">F = YES &nbsp;&nbsp;&nbsp; J = NO</p>
","j","html-keyboard-response","27","2.1.0","111402","F=YES, J=NO","x1tj8t00v4","0","74","68","80","","","","","","lextale","false","false","","","","","","","",""
"1961","
  <p style=""font-size: 40px;"">thirst</p>
  <p style=""font-size: 16px;"">F = YES &nbsp;&nbsp;&nbsp; J = NO</p>
","f","html-keyboard-response","28","2.1.0","113365","F=YES, J=NO","x1tj8t00v4","0","74","68","80","","","","","","lextale","true","false","","","","","","","",""
"1497","
  <p style=""font-size: 40px;"">unsail</p>
  <p style=""font-size: 16px;"">F = YES &nbsp;&nbsp;&nbsp; J = NO</p>
","f","html-keyboard-response","29","2.1.0","114863","F=YES, J=NO","x1tj8t00v4","0","74","68","80","","","","","","lextale","false","false","","","","","","","",""
"1044","
  <p style=""font-size: 40px;"">rifle</p>
  <p style=""font-size: 16px;"">F = YES &nbsp;&nbsp;&nbsp; J = NO</p>
","f","html-keyboard-response","30","2.1.0","115909","F=YES, J=NO","x1tj8t00v4","0","74","68","80","","","","","","lextale","true","false","","","","","","","",""
"986","
  <p style=""font-size: 40px;"">mush</p>
  <p style=""font-size: 16px;"">F = YES &nbsp;&nbsp;&nbsp; J = NO</p>
","j","html-keyboard-response","31","2.1.0","116897","F=YES, J=NO","x1tj8t00v4","0","74","68","80","","","","","","lextale","false","false","","","","","","","",""
"801","
  <p style=""font-size: 40px;"">drench</p>
  <p style=""font-size: 16px;"">F = YES &nbsp;&nbsp;&nbsp; J = NO</p>
","f","html-keyboard-response","32","2.1.0","117699","F=YES, J=NO","x1tj8t00v4","0","74","68","80","","","","","","lextale","true","false","","","","","","","",""
"750","
  <p style=""font-size: 40px;"">snirt</p>
  <p style=""font-size: 16px;"">F = YES &nbsp;&nbsp;&nbsp; J = NO</p>
","j","html-keyboard-response","33","2.1.0","118451","F=YES, J=NO","x1tj8t00v4","0","74","68","80","","","","","","lextale","false","false","","","","","","","",""
"721","
  <p style=""font-size: 40px;"">bitter</p>
  <p style=""font-size: 16px;"">F = YES &nbsp;&nbsp;&nbsp; J = NO</p>
","f","html-keyboard-response","34","2.1.0","119173","F=YES, J=NO","x1tj8t00v4","0","74","68","80","","","","","","lextale","true","false","","","","","","","",""
"1479","
  <p style=""font-size: 40px;"">pliff</p>
  <p style=""font-size: 16px;"">F = YES &nbsp;&nbsp;&nbsp; J = NO</p>
","j","html-keyboard-response","35","2.1.0","120654","F=YES, J=NO","x1tj8t00v4","0","74","68","80","","","","","","lextale","false","false","","","","","","","",""
"631","
  <p style=""font-size: 40px;"">tablet</p>
  <p style=""font-size: 16px;"">F = YES &nbsp;&nbsp;&nbsp; J = NO</p>
","f","html-keyboard-response","36","2.1.0","121286","F=YES, J=NO","x1tj8t00v4","0","74","68","80","","","","","","lextale","true","false","","","","","","","",""
"1595","
  <p style=""font-size: 40px;"">glimmer</p>
  <p style=""font-size: 16px;"">F = YES &nbsp;&nbsp;&nbsp; J = NO</p>
","f","html-keyboard-response","37","2.1.0","122883","F=YES, J=NO","x1tj8t00v4","0","74","68","80","","","","","","lextale","true","false","","","","","","","",""
"1265","
  <p style=""font-size: 40px;"">slink</p>
  <p style=""font-size: 16px;"">F = YES &nbsp;&nbsp;&nbsp; J = NO</p>
","j","html-keyboard-response","38","2.1.0","124149","F=YES, J=NO","x1tj8t00v4","0","74","68","80","","","","","","lextale","true","false","","","","","","","",""
"701","
  <p style=""font-size: 40px;"">clever</p>
  <p style=""font-size: 16px;"">F = YES &nbsp;&nbsp;&nbsp; J = NO</p>
","f","html-keyboard-response","39","2.1.0","124852","F=YES, J=NO","x1tj8t00v4","0","74","68","80","","","","","","lextale","true","false","","","","","","","",""
"795","
  <p style=""font-size: 40px;"">grum</p>
  <p style=""font-size: 16px;"">F = YES &nbsp;&nbsp;&nbsp; J = NO</p>
","j","html-keyboard-response","40","2.1.0","125649","F=YES, J=NO","x1tj8t00v4","0","74","68","80","","","","","","lextale","false","false","","","","","","","",""
"1026","
  <p style=""font-size: 40px;"">string</p>
  <p style=""font-size: 16px;"">F = YES &nbsp;&nbsp;&nbsp; J = NO</p>
","f","html-keyboard-response","41","2.1.0","126676","F=YES, J=NO","x1tj8t00v4","0","74","68","80","","","","","","lextale","true","false","","","","","","","",""
"1062","
  <p style=""font-size: 40px;"">plim</p>
  <p style=""font-size: 16px;"">F = YES &nbsp;&nbsp;&nbsp; J = NO</p>
","j","html-keyboard-response","42","2.1.0","127739","F=YES, J=NO","x1tj8t00v4","0","74","68","80","","","","","","lextale","false","false","","","","","","","",""
"83","
  <p style=""font-size: 40px;"">cable</p>
  <p style=""font-size: 16px;"">F = YES &nbsp;&nbsp;&nbsp; J = NO</p>
","j","html-keyboard-response","43","2.1.0","127824","F=YES, J=NO","x1tj8t00v4","0","74","68","80","","","","","","lextale","true","false","","","","","","","",""
"2483","
  <p style=""font-size: 40px;"">shrivel</p>
  <p style=""font-size: 16px;"">F = YES &nbsp;&nbsp;&nbsp; J = NO</p>
","j","html-keyboard-response","44","2.1.0","130308","F=YES, J=NO","x1tj8t00v4","0","74","68","80","","","","","","lextale","true","false","","","","","","","",""
"1006","
  <p style=""font-size: 40px;"">tarnish</p>
  <p style=""font-size: 16px;"">F = YES &nbsp;&nbsp;&nbsp; J = NO</p>
","j","html-keyboard-response","45","2.1.0","131315","F=YES, J=NO","x1tj8t00v4","0","74","68","80","","","","","","lextale","true","false","","","","","","","",""
"3486","
  <p style=""font-size: 40px;"">blim</p>
  <p style=""font-size: 16px;"">F = YES &nbsp;&nbsp;&nbsp; J = NO</p>
","j","html-keyboard-response","46","2.1.0","134802","F=YES, J=NO","x1tj8t00v4","0","74","68","80","","","","","","lextale","false","false","","","","","","","",""
"3104","
  <p style=""font-size: 40px;"">stifle</p>
  <p style=""font-size: 16px;"">F = YES &nbsp;&nbsp;&nbsp; J = NO</p>
","f","html-keyboard-response","47","2.1.0","137908","F=YES, J=NO","x1tj8t00v4","0","74","68","80","","","","","","lextale","true","false","","","","","","","",""
"2416","
  <p style=""font-size: 40px;"">bint</p>
  <p style=""font-size: 16px;"">F = YES &nbsp;&nbsp;&nbsp; J = NO</p>
","j","html-keyboard-response","48","2.1.0","140325","F=YES, J=NO","x1tj8t00v4","0","74","68","80","","","","","","lextale","false","false","","","","","","","",""
"714","
  <p style=""font-size: 40px;"">purple</p>
  <p style=""font-size: 16px;"">F = YES &nbsp;&nbsp;&nbsp; J = NO</p>
","f","html-keyboard-response","49","2.1.0","141042","F=YES, J=NO","x1tj8t00v4","0","74","68","80","","","","","","lextale","true","false","","","","","","","",""
"1058","
  <p style=""font-size: 40px;"">wriggle</p>
  <p style=""font-size: 16px;"">F = YES &nbsp;&nbsp;&nbsp; J = NO</p>
","f","html-keyboard-response","50","2.1.0","142101","F=YES, J=NO","x1tj8t00v4","0","74","68","80","","","","","","lextale","true","false","","","","","","","",""
"1751","
  <p style=""font-size: 40px;"">mangle</p>
  <p style=""font-size: 16px;"">F = YES &nbsp;&nbsp;&nbsp; J = NO</p>
","f","html-keyboard-response","51","2.1.0","143854","F=YES, J=NO","x1tj8t00v4","0","74","68","80","","","","","","lextale","true","false","","","","","","","",""
"1367","
  <p style=""font-size: 40px;"">shramp</p>
  <p style=""font-size: 16px;"">F = YES &nbsp;&nbsp;&nbsp; J = NO</p>
","f","html-keyboard-response","52","2.1.0","145223","F=YES, J=NO","x1tj8t00v4","0","74","68","80","","","","","","lextale","false","false","","","","","","","",""
"1052","
  <p style=""font-size: 40px;"">flirt</p>
  <p style=""font-size: 16px;"">F = YES &nbsp;&nbsp;&nbsp; J = NO</p>
","f","html-keyboard-response","53","2.1.0","146276","F=YES, J=NO","x1tj8t00v4","0","74","68","80","","","","","","lextale","true","false","","","","","","","",""
"1502","
  <p style=""font-size: 40px;"">frip</p>
  <p style=""font-size: 16px;"">F = YES &nbsp;&nbsp;&nbsp; J = NO</p>
","j","html-keyboard-response","54","2.1.0","147779","F=YES, J=NO","x1tj8t00v4","0","74","68","80","","","","","","lextale","false","false","","","","","","","",""
"1688","
  <p style=""font-size: 40px;"">tangle</p>
  <p style=""font-size: 16px;"">F = YES &nbsp;&nbsp;&nbsp; J = NO</p>
","f","html-keyboard-response","55","2.1.0","149468","F=YES, J=NO","x1tj8t00v4","0","74","68","80","","","","","","lextale","true","false","","","","","","","",""
"1359","
  <p style=""font-size: 40px;"">crumble</p>
  <p style=""font-size: 16px;"">F = YES &nbsp;&nbsp;&nbsp; J = NO</p>
","f","html-keyboard-response","56","2.1.0","150829","F=YES, J=NO","x1tj8t00v4","0","74","68","80","","","","","","lextale","true","false","","","","","","","",""
"651","
  <p style=""font-size: 40px;"">wrinkle</p>
  <p style=""font-size: 16px;"">F = YES &nbsp;&nbsp;&nbsp; J = NO</p>
","f","html-keyboard-response","57","2.1.0","151481","F=YES, J=NO","x1tj8t00v4","0","74","68","80","","","","","","lextale","true","false","","","","","","","",""
"1408","
  <p style=""font-size: 40px;"">slumb</p>
  <p style=""font-size: 16px;"">F = YES &nbsp;&nbsp;&nbsp; J = NO</p>
","j","html-keyboard-response","58","2.1.0","152890","F=YES, J=NO","x1tj8t00v4","0","74","68","80","","","","","","lextale","false","false","","","","","","","",""
"859","
  <p style=""font-size: 40px;"">jungle</p>
  <p style=""font-size: 16px;"">F = YES &nbsp;&nbsp;&nbsp; J = NO</p>
","f","html-keyboard-response","59","2.1.0","153751","F=YES, J=NO","x1tj8t00v4","0","74","68","80","","","","","","lextale","true","false","","","","","","","",""
"924","
  <p style=""font-size: 40px;"">frolick</p>
  <p style=""font-size: 16px;"">F = YES &nbsp;&nbsp;&nbsp; J = NO</p>
","f","html-keyboard-response","60","2.1.0","154676","F=YES, J=NO","x1tj8t00v4","0","74","68","80","","","","","","lextale","false","false","","","","","","","",""
"4044","
      <h2>LexTALE Test Completed</h2>
      <p>Your LexTALE vocabulary score is: <strong>74%</strong></p>
      <p>Press any key to continue.</p>
    ","j","html-keyboard-response","61","2.1.0","158723","F=YES, J=NO","x1tj8t00v4","0","74","68","80","","","","","","","","","","","","","","","",""
"5636","
    <div style=""max-width: 800px; margin: auto; text-align: left;"">
      <h2>Break Time</h2>
      <p>You have completed the first part of the study.</p>
      <p>You may take a short <strong>30-second break</strong> before continuing.</p>
      <p>When you’re ready, press any key to continue to the final task.</p>
    </div>
  ","j","html-keyboard-response","62","2.1.0","164360","F=YES, J=NO","x1tj8t00v4","0","74","68","80","","","","","","","","","","","","","","","",""
"23254","
    <div style=""max-width: 800px; margin: auto; text-align: left;"">
      <h2>Part 2: Lexical Decision Task</h2>
      <p>You will now begin the second part of the study.</p>
      <p>Each trial will follow this sequence:</p>
      <ul>
        <li>A fixation cross (+) appears at the center of the screen.</li>
        <li>You will hear a short beep followed by a spoken word.</li>
        <li>A written word will appear briefly on the screen.</li>
      </ul>
      <p>Your task is to judge whether the <strong>written word</strong> is a real English word.</p>
      <p style=""margin-top: 1em;""><strong>Key responses:</strong></p>
      <ul>
        <li><strong>F</strong> = YES (real English word)</li>
        <li><strong>J</strong> = NO (not a real English word)</li>
      </ul>
      <p>Please respond as quickly and accurately as you can.</p>
      <p style=""margin-top: 2em;"">Press any key to continue.</p>
    </div>
  ","j","html-keyboard-response","63","2.1.0","187616","F=YES, J=NO","x1tj8t00v4","0","74","68","80","","","","","","","","","","","","","","","",""
"26078","
    <div style=""max-width: 800px; margin: auto; text-align: left;"">
      <h2>Before You Begin</h2>
      <p>Make sure your sound is turned on.</p>
      <p>You will hear audio during each trial, but your decision should be based only on the <strong>written word</strong> you see on the screen.</p>
      <p><strong>Reminder:</strong></p>
      <ul>
        <li><strong>F</strong> = YES (real English word)</li>
        <li><strong>J</strong> = NO (not a real English word)</li>
      </ul>
      <p style=""margin-top: 2em;"">Press any key when you are ready to begin.</p>
    </div>
  ","j","html-keyboard-response","64","2.1.0","213697","F=YES, J=NO","x1tj8t00v4","0","74","68","80","","","","","","","","","","","","","","","",""
"5961","
    <div style=""max-width: 800px; margin: auto; text-align: left;"">
      <h2>Part 2: Practice Trials</h2>
      <p>You will now complete a few <strong>practice trials</strong> to get familiar with the task.</p>
      <p>These trials are <strong>not scored</strong> and are only to help you get used to the format.</p>
      <p style=""margin-top: 2em;"">Press any key to begin.</p>
    </div>
  ","j","html-keyboard-response","65","2.1.0","219660","F=YES, J=NO","x1tj8t00v4","0","74","68","80","","","","","","","","","","","","","","","",""
"1361","<p>Starting practice block 1 of 2. Press any key to continue.</p>","j","html-keyboard-response","66","2.1.0","221023","F=YES, J=NO","x1tj8t00v4","0","74","68","80","","","","","","","","","","","","","","","",""
"null","<p style=""font-size: 50px;"">+</p>","null","html-keyboard-response","67","2.1.0","221337","F=YES, J=NO","x1tj8t00v4","0","74","68","80","","","","","","","","","","","","","","","",""
"null","audio/beep-329314.mp3","null","audio-keyboard-response","68","2.1.0","223493","F=YES, J=NO","x1tj8t00v4","0","74","68","80","","","","","","","","","","","","","","","",""
"null","audio/vehicle1.wav","null","audio-keyboard-response","69","2.1.0","224186","F=YES, J=NO","x1tj8t00v4","0","74","68","80","","","","","","","","","","","","","","","",""
"null","
          <p id=""word"" style=""font-size: 40px;"">dropt</p>
          <p style=""font-size: 16px;"">F = YES &nbsp;&nbsp;&nbsp; J = NO</p>
        ","null","html-keyboard-response","70","2.1.0","225692","F=YES, J=NO","x1tj8t00v4","0","74","68","80","","","","","","","","","dropt","vehicle1","pseudoword","pseudoword","j","false","",""
"null","<p style=""font-size: 50px;"">+</p>","null","html-keyboard-response","71","2.1.0","226001","F=YES, J=NO","x1tj8t00v4","0","74","68","80","","","","","","","","","","","","","","","",""
"null","audio/beep-329314.mp3","null","audio-keyboard-response","72","2.1.0","227537","F=YES, J=NO","x1tj8t00v4","0","74","68","80","","","","","","","","","","","","","","","",""
"null","audio/bomb1.wav","null","audio-keyboard-response","73","2.1.0","227946","F=YES, J=NO","x1tj8t00v4","0","74","68","80","","","","","","","","","","","","","","","",""
"1044","
          <p id=""word"" style=""font-size: 40px;"">clean</p>
          <p style=""font-size: 16px;"">F = YES &nbsp;&nbsp;&nbsp; J = NO</p>
        ","f","html-keyboard-response","74","2.1.0","228992","F=YES, J=NO","x1tj8t00v4","0","74","68","80","","","","","","","","","clean","bomb1","filler","filler","f","true","",""
"null","<p style=""font-size: 50px;"">+</p>","null","html-keyboard-response","75","2.1.0","229300","F=YES, J=NO","x1tj8t00v4","0","74","68","80","","","","","","","","","","","","","","","",""
"null","audio/beep-329314.mp3","null","audio-keyboard-response","76","2.1.0","230836","F=YES, J=NO","x1tj8t00v4","0","74","68","80","","","","","","","","","","","","","","","",""
"null","audio/purpose.wav","null","audio-keyboard-response","77","2.1.0","231766","F=YES, J=NO","x1tj8t00v4","0","74","68","80","","","","","","","","","","","","","","","",""
"1039","
          <p id=""word"" style=""font-size: 40px;"">whigm</p>
          <p style=""font-size: 16px;"">F = YES &nbsp;&nbsp;&nbsp; J = NO</p>
        ","j","html-keyboard-response","78","2.1.0","232807","F=YES, J=NO","x1tj8t00v4","0","74","68","80","","","","","","","","","whigm","purpose","pseudoword","pseudoword","j","true","",""
"null","<p style=""font-size: 50px;"">+</p>","null","html-keyboard-response","79","2.1.0","233115","F=YES, J=NO","x1tj8t00v4","0","74","68","80","","","","","","","","","","","","","","","",""
"null","audio/beep-329314.mp3","null","audio-keyboard-response","80","2.1.0","234656","F=YES, J=NO","x1tj8t00v4","0","74","68","80","","","","","","","","","","","","","","","",""
"null","audio/plot1.wav","null","audio-keyboard-response","81","2.1.0","235346","F=YES, J=NO","x1tj8t00v4","0","74","68","80","","","","","","","","","","","","","","","",""
"1257","
          <p id=""word"" style=""font-size: 40px;"">glenter</p>
          <p style=""font-size: 16px;"">F = YES &nbsp;&nbsp;&nbsp; J = NO</p>
        ","j","html-keyboard-response","82","2.1.0","236604","F=YES, J=NO","x1tj8t00v4","0","74","68","80","","","","","","","","","glenter","plot1","pseudoword","pseudoword","j","true","",""
"null","<p style=""font-size: 50px;"">+</p>","null","html-keyboard-response","83","2.1.0","236914","F=YES, J=NO","x1tj8t00v4","0","74","68","80","","","","","","","","","","","","","","","",""
"null","audio/beep-329314.mp3","null","audio-keyboard-response","84","2.1.0","238456","F=YES, J=NO","x1tj8t00v4","0","74","68","80","","","","","","","","","","","","","","","",""
"null","audio/strength.wav","null","audio-keyboard-response","85","2.1.0","239766","F=YES, J=NO","x1tj8t00v4","0","74","68","80","","","","","","","","","","","","","","","",""
"1024","
          <p id=""word"" style=""font-size: 40px;"">plabet</p>
          <p style=""font-size: 16px;"">F = YES &nbsp;&nbsp;&nbsp; J = NO</p>
        ","j","html-keyboard-response","86","2.1.0","240792","F=YES, J=NO","x1tj8t00v4","0","74","68","80","","","","","","","","","plabet","strength","pseudoword","pseudoword","j","true","",""
"null","<p style=""font-size: 50px;"">+</p>","null","html-keyboard-response","87","2.1.0","241104","F=YES, J=NO","x1tj8t00v4","0","74","68","80","","","","","","","","","","","","","","","",""
"null","audio/beep-329314.mp3","null","audio-keyboard-response","88","2.1.0","242637","F=YES, J=NO","x1tj8t00v4","0","74","68","80","","","","","","","","","","","","","","","",""
"null","audio/scar.wav","null","audio-keyboard-response","89","2.1.0","243566","F=YES, J=NO","x1tj8t00v4","0","74","68","80","","","","","","","","","","","","","","","",""
"1003","
          <p id=""word"" style=""font-size: 40px;"">adelineate</p>
          <p style=""font-size: 16px;"">F = YES &nbsp;&nbsp;&nbsp; J = NO</p>
        ","f","html-keyboard-response","90","2.1.0","244571","F=YES, J=NO","x1tj8t00v4","0","74","68","80","","","","","","","","","adelineate","scar","pseudoword","pseudoword","j","false","",""
"null","<p style=""font-size: 50px;"">+</p>","null","html-keyboard-response","91","2.1.0","244874","F=YES, J=NO","x1tj8t00v4","0","74","68","80","","","","","","","","","","","","","","","",""
"null","audio/beep-329314.mp3","null","audio-keyboard-response","92","2.1.0","246396","F=YES, J=NO","x1tj8t00v4","0","74","68","80","","","","","","","","","","","","","","","",""
"null","audio/beach1.wav","null","audio-keyboard-response","93","2.1.0","247027","F=YES, J=NO","x1tj8t00v4","0","74","68","80","","","","","","","","","","","","","","","",""
"816","
          <p id=""word"" style=""font-size: 40px;"">drive</p>
          <p style=""font-size: 16px;"">F = YES &nbsp;&nbsp;&nbsp; J = NO</p>
        ","f","html-keyboard-response","94","2.1.0","247845","F=YES, J=NO","x1tj8t00v4","0","74","68","80","","","","","","","","","drive","beach1","filler","filler","f","true","",""
"null","<p style=""font-size: 50px;"">+</p>","null","html-keyboard-response","95","2.1.0","248156","F=YES, J=NO","x1tj8t00v4","0","74","68","80","","","","","","","","","","","","","","","",""
"null","audio/beep-329314.mp3","null","audio-keyboard-response","96","2.1.0","249697","F=YES, J=NO","x1tj8t00v4","0","74","68","80","","","","","","","","","","","","","","","",""
"null","audio/alarm1.wav","null","audio-keyboard-response","97","2.1.0","250326","F=YES, J=NO","x1tj8t00v4","0","74","68","80","","","","","","","","","","","","","","","",""
"785","
          <p id=""word"" style=""font-size: 40px;"">lock</p>
          <p style=""font-size: 16px;"">F = YES &nbsp;&nbsp;&nbsp; J = NO</p>
        ","f","html-keyboard-response","98","2.1.0","251113","F=YES, J=NO","x1tj8t00v4","0","74","68","80","","","","","","","","","lock","alarm1","filler","filler","f","true","",""
"null","<p style=""font-size: 50px;"">+</p>","null","html-keyboard-response","99","2.1.0","251425","F=YES, J=NO","x1tj8t00v4","0","74","68","80","","","","","","","","","","","","","","","",""
"null","audio/beep-329314.mp3","null","audio-keyboard-response","100","2.1.0","252956","F=YES, J=NO","x1tj8t00v4","0","74","68","80","","","","","","","","","","","","","","","",""
"null","audio/hotel1.wav","null","audio-keyboard-response","101","2.1.0","253786","F=YES, J=NO","x1tj8t00v4","0","74","68","80","","","","","","","","","","","","","","","",""
"828","
          <p id=""word"" style=""font-size: 40px;"">flanter</p>
          <p style=""font-size: 16px;"">F = YES &nbsp;&nbsp;&nbsp; J = NO</p>
        ","j","html-keyboard-response","102","2.1.0","254616","F=YES, J=NO","x1tj8t00v4","0","74","68","80","","","","","","","","","flanter","hotel1","pseudoword","pseudoword","j","true","",""
"null","<p style=""font-size: 50px;"">+</p>","null","html-keyboard-response","103","2.1.0","254926","F=YES, J=NO","x1tj8t00v4","0","74","68","80","","","","","","","","","","","","","","","",""
"null","audio/beep-329314.mp3","null","audio-keyboard-response","104","2.1.0","256457","F=YES, J=NO","x1tj8t00v4","0","74","68","80","","","","","","","","","","","","","","","",""
"null","audio/belief.wav","null","audio-keyboard-response","105","2.1.0","257207","F=YES, J=NO","x1tj8t00v4","0","74","68","80","","","","","","","","","","","","","","","",""
"493","
          <p id=""word"" style=""font-size: 40px;"">read</p>
          <p style=""font-size: 16px;"">F = YES &nbsp;&nbsp;&nbsp; J = NO</p>
        ","f","html-keyboard-response","106","2.1.0","257701","F=YES, J=NO","x1tj8t00v4","0","74","68","80","","","","","","","","","read","belief","filler","filler","f","true","",""
"null","<p style=""font-size: 50px;"">+</p>","null","html-keyboard-response","107","2.1.0","258008","F=YES, J=NO","x1tj8t00v4","0","74","68","80","","","","","","","","","","","","","","","",""
"null","audio/beep-329314.mp3","null","audio-keyboard-response","108","2.1.0","259537","F=YES, J=NO","x1tj8t00v4","0","74","68","80","","","","","","","","","","","","","","","",""
"null","audio/fence.wav","null","audio-keyboard-response","109","2.1.0","260306","F=YES, J=NO","x1tj8t00v4","0","74","68","80","","","","","","","","","","","","","","","",""
"680","
          <p id=""word"" style=""font-size: 40px;"">trim</p>
          <p style=""font-size: 16px;"">F = YES &nbsp;&nbsp;&nbsp; J = NO</p>
        ","f","html-keyboard-response","110","2.1.0","260988","F=YES, J=NO","x1tj8t00v4","0","74","68","80","","","","","","","","","trim","fence","filler","filler","f","true","",""
"null","<p style=""font-size: 50px;"">+</p>","null","html-keyboard-response","111","2.1.0","261300","F=YES, J=NO","x1tj8t00v4","0","74","68","80","","","","","","","","","","","","","","","",""
"null","audio/beep-329314.mp3","null","audio-keyboard-response","112","2.1.0","262836","F=YES, J=NO","x1tj8t00v4","0","74","68","80","","","","","","","","","","","","","","","",""
"null","audio/bishop1.wav","null","audio-keyboard-response","113","2.1.0","263447","F=YES, J=NO","x1tj8t00v4","0","74","68","80","","","","","","","","","","","","","","","",""
"708","
          <p id=""word"" style=""font-size: 40px;"">play</p>
          <p style=""font-size: 16px;"">F = YES &nbsp;&nbsp;&nbsp; J = NO</p>
        ","f","html-keyboard-response","114","2.1.0","264157","F=YES, J=NO","x1tj8t00v4","0","74","68","80","","","","","","","","","play","bishop1","filler","filler","f","true","",""
"1699","<p>Starting practice block 2 of 2. Press any key to continue.</p>","j","html-keyboard-response","115","2.1.0","265857","F=YES, J=NO","x1tj8t00v4","0","74","68","80","","","","","","","","","","","","","","","",""
"null","<p style=""font-size: 50px;"">+</p>","null","html-keyboard-response","116","2.1.0","266167","F=YES, J=NO","x1tj8t00v4","0","74","68","80","","","","","","","","","","","","","","","",""
"null","audio/beep-329314.mp3","null","audio-keyboard-response","117","2.1.0","267697","F=YES, J=NO","x1tj8t00v4","0","74","68","80","","","","","","","","","","","","","","","",""
"null","audio/haste1.wav","null","audio-keyboard-response","118","2.1.0","268307","F=YES, J=NO","x1tj8t00v4","0","74","68","80","","","","","","","","","","","","","","","",""
"986","
          <p id=""word"" style=""font-size: 40px;"">coraconate</p>
          <p style=""font-size: 16px;"">F = YES &nbsp;&nbsp;&nbsp; J = NO</p>
        ","j","html-keyboard-response","119","2.1.0","269295","F=YES, J=NO","x1tj8t00v4","0","74","68","80","","","","","","","","","coraconate","haste1","pseudoword","pseudoword","j","true","",""
"null","<p style=""font-size: 50px;"">+</p>","null","html-keyboard-response","120","2.1.0","269605","F=YES, J=NO","x1tj8t00v4","0","74","68","80","","","","","","","","","","","","","","","",""
"null","audio/beep-329314.mp3","null","audio-keyboard-response","121","2.1.0","271136","F=YES, J=NO","x1tj8t00v4","0","74","68","80","","","","","","","","","","","","","","","",""
"null","audio/arm.wav","null","audio-keyboard-response","122","2.1.0","271726","F=YES, J=NO","x1tj8t00v4","0","74","68","80","","","","","","","","","","","","","","","",""
"703","
          <p id=""word"" style=""font-size: 40px;"">fold</p>
          <p style=""font-size: 16px;"">F = YES &nbsp;&nbsp;&nbsp; J = NO</p>
        ","f","html-keyboard-response","123","2.1.0","272431","F=YES, J=NO","x1tj8t00v4","0","74","68","80","","","","","","","","","fold","arm","filler","filler","f","true","",""
"null","<p style=""font-size: 50px;"">+</p>","null","html-keyboard-response","124","2.1.0","272742","F=YES, J=NO","x1tj8t00v4","0","74","68","80","","","","","","","","","","","","","","","",""
"null","audio/beep-329314.mp3","null","audio-keyboard-response","125","2.1.0","274276","F=YES, J=NO","x1tj8t00v4","0","74","68","80","","","","","","","","","","","","","","","",""
"null","audio/novel.wav","null","audio-keyboard-response","126","2.1.0","274946","F=YES, J=NO","x1tj8t00v4","0","74","68","80","","","","","","","","","","","","","","","",""
"630","
          <p id=""word"" style=""font-size: 40px;"">type</p>
          <p style=""font-size: 16px;"">F = YES &nbsp;&nbsp;&nbsp; J = NO</p>
        ","f","html-keyboard-response","127","2.1.0","275578","F=YES, J=NO","x1tj8t00v4","0","74","68","80","","","","","","","","","type","novel","filler","filler","f","true","",""
"null","<p style=""font-size: 50px;"">+</p>","null","html-keyboard-response","128","2.1.0","275885","F=YES, J=NO","x1tj8t00v4","0","74","68","80","","","","","","","","","","","","","","","",""
"null","audio/beep-329314.mp3","null","audio-keyboard-response","129","2.1.0","277417","F=YES, J=NO","x1tj8t00v4","0","74","68","80","","","","","","","","","","","","","","","",""
"null","audio/camera1.wav","null","audio-keyboard-response","130","2.1.0","277946","F=YES, J=NO","x1tj8t00v4","0","74","68","80","","","","","","","","","","","","","","","",""
"739","
          <p id=""word"" style=""font-size: 40px;"">stir</p>
          <p style=""font-size: 16px;"">F = YES &nbsp;&nbsp;&nbsp; J = NO</p>
        ","f","html-keyboard-response","131","2.1.0","278687","F=YES, J=NO","x1tj8t00v4","0","74","68","80","","","","","","","","","stir","camera1","filler","filler","f","true","",""
"null","<p style=""font-size: 50px;"">+</p>","null","html-keyboard-response","132","2.1.0","279001","F=YES, J=NO","x1tj8t00v4","0","74","68","80","","","","","","","","","","","","","","","",""
"null","audio/beep-329314.mp3","null","audio-keyboard-response","133","2.1.0","280536","F=YES, J=NO","x1tj8t00v4","0","74","68","80","","","","","","","","","","","","","","","",""
"null","audio/sand.wav","null","audio-keyboard-response","134","2.1.0","281206","F=YES, J=NO","x1tj8t00v4","0","74","68","80","","","","","","","","","","","","","","","",""
"988","
          <p id=""word"" style=""font-size: 40px;"">proted</p>
          <p style=""font-size: 16px;"">F = YES &nbsp;&nbsp;&nbsp; J = NO</p>
        ","j","html-keyboard-response","135","2.1.0","282195","F=YES, J=NO","x1tj8t00v4","0","74","68","80","","","","","","","","","proted","sand","pseudoword","pseudoword","j","true","",""
"null","<p style=""font-size: 50px;"">+</p>","null","html-keyboard-response","136","2.1.0","282500","F=YES, J=NO","x1tj8t00v4","0","74","68","80","","","","","","","","","","","","","","","",""
"null","audio/beep-329314.mp3","null","audio-keyboard-response","137","2.1.0","284036","F=YES, J=NO","x1tj8t00v4","0","74","68","80","","","","","","","","","","","","","","","",""
"null","audio/menu.wav","null","audio-keyboard-response","138","2.1.0","284766","F=YES, J=NO","x1tj8t00v4","0","74","68","80","","","","","","","","","","","","","","","",""
"736","
          <p id=""word"" style=""font-size: 40px;"">slice</p>
          <p style=""font-size: 16px;"">F = YES &nbsp;&nbsp;&nbsp; J = NO</p>
        ","f","html-keyboard-response","139","2.1.0","285504","F=YES, J=NO","x1tj8t00v4","0","74","68","80","","","","","","","","","slice","menu","filler","filler","f","true","",""
"null","<p style=""font-size: 50px;"">+</p>","null","html-keyboard-response","140","2.1.0","285813","F=YES, J=NO","x1tj8t00v4","0","74","68","80","","","","","","","","","","","","","","","",""
"null","audio/beep-329314.mp3","null","audio-keyboard-response","141","2.1.0","287337","F=YES, J=NO","x1tj8t00v4","0","74","68","80","","","","","","","","","","","","","","","",""
"null","audio/show.wav","null","audio-keyboard-response","142","2.1.0","287906","F=YES, J=NO","x1tj8t00v4","0","74","68","80","","","","","","","","","","","","","","","",""
"1241","
          <p id=""word"" style=""font-size: 40px;"">smark</p>
          <p style=""font-size: 16px;"">F = YES &nbsp;&nbsp;&nbsp; J = NO</p>
        ","f","html-keyboard-response","143","2.1.0","289148","F=YES, J=NO","x1tj8t00v4","0","74","68","80","","","","","","","","","smark","show","pseudoword","pseudoword","j","false","",""
"null","<p style=""font-size: 50px;"">+</p>","null","html-keyboard-response","144","2.1.0","289454","F=YES, J=NO","x1tj8t00v4","0","74","68","80","","","","","","","","","","","","","","","",""
"null","audio/beep-329314.mp3","null","audio-keyboard-response","145","2.1.0","290997","F=YES, J=NO","x1tj8t00v4","0","74","68","80","","","","","","","","","","","","","","","",""
"null","audio/age1.wav","null","audio-keyboard-response","146","2.1.0","291586","F=YES, J=NO","x1tj8t00v4","0","74","68","80","","","","","","","","","","","","","","","",""
"649","
          <p id=""word"" style=""font-size: 40px;"">bake</p>
          <p style=""font-size: 16px;"">F = YES &nbsp;&nbsp;&nbsp; J = NO</p>
        ","f","html-keyboard-response","147","2.1.0","292237","F=YES, J=NO","x1tj8t00v4","0","74","68","80","","","","","","","","","bake","age1","filler","filler","f","true","",""
"null","<p style=""font-size: 50px;"">+</p>","null","html-keyboard-response","148","2.1.0","292539","F=YES, J=NO","x1tj8t00v4","0","74","68","80","","","","","","","","","","","","","","","",""
"null","audio/beep-329314.mp3","null","audio-keyboard-response","149","2.1.0","294076","F=YES, J=NO","x1tj8t00v4","0","74","68","80","","","","","","","","","","","","","","","",""
"null","audio/cancer1.wav","null","audio-keyboard-response","150","2.1.0","294826","F=YES, J=NO","x1tj8t00v4","0","74","68","80","","","","","","","","","","","","","","","",""
"581","
          <p id=""word"" style=""font-size: 40px;"">draw</p>
          <p style=""font-size: 16px;"">F = YES &nbsp;&nbsp;&nbsp; J = NO</p>
        ","f","html-keyboard-response","151","2.1.0","295408","F=YES, J=NO","x1tj8t00v4","0","74","68","80","","","","","","","","","draw","cancer1","filler","filler","f","true","",""
"null","<p style=""font-size: 50px;"">+</p>","null","html-keyboard-response","152","2.1.0","295712","F=YES, J=NO","x1tj8t00v4","0","74","68","80","","","","","","","","","","","","","","","",""
"null","audio/beep-329314.mp3","null","audio-keyboard-response","153","2.1.0","297236","F=YES, J=NO","x1tj8t00v4","0","74","68","80","","","","","","","","","","","","","","","",""
"null","audio/budget1.wav","null","audio-keyboard-response","154","2.1.0","297946","F=YES, J=NO","x1tj8t00v4","0","74","68","80","","","","","","","","","","","","","","","",""
"1137","
          <p id=""word"" style=""font-size: 40px;"">sulist</p>
          <p style=""font-size: 16px;"">F = YES &nbsp;&nbsp;&nbsp; J = NO</p>
        ","j","html-keyboard-response","155","2.1.0","299084","F=YES, J=NO","x1tj8t00v4","0","74","68","80","","","","","","","","","sulist","budget1","pseudoword","pseudoword","j","true","",""
"null","<p style=""font-size: 50px;"">+</p>","null","html-keyboard-response","156","2.1.0","299393","F=YES, J=NO","x1tj8t00v4","0","74","68","80","","","","","","","","","","","","","","","",""
"null","audio/beep-329314.mp3","null","audio-keyboard-response","157","2.1.0","300917","F=YES, J=NO","x1tj8t00v4","0","74","68","80","","","","","","","","","","","","","","","",""
"null","audio/prisoner.wav","null","audio-keyboard-response","158","2.1.0","301786","F=YES, J=NO","x1tj8t00v4","0","74","68","80","","","","","","","","","","","","","","","",""
"1097","
          <p id=""word"" style=""font-size: 40px;"">egotian</p>
          <p style=""font-size: 16px;"">F = YES &nbsp;&nbsp;&nbsp; J = NO</p>
        ","j","html-keyboard-response","159","2.1.0","302885","F=YES, J=NO","x1tj8t00v4","0","74","68","80","","","","","","","","","egotian","prisoner","pseudoword","pseudoword","j","true","",""
"null","<p style=""font-size: 50px;"">+</p>","null","html-keyboard-response","160","2.1.0","303200","F=YES, J=NO","x1tj8t00v4","0","74","68","80","","","","","","","","","","","","","","","",""
"null","audio/beep-329314.mp3","null","audio-keyboard-response","161","2.1.0","304737","F=YES, J=NO","x1tj8t00v4","0","74","68","80","","","","","","","","","","","","","","","",""
"null","audio/tunnel.wav","null","audio-keyboard-response","162","2.1.0","305186","F=YES, J=NO","x1tj8t00v4","0","74","68","80","","","","","","","","","","","","","","","",""
"815","
          <p id=""word"" style=""font-size: 40px;"">gred</p>
          <p style=""font-size: 16px;"">F = YES &nbsp;&nbsp;&nbsp; J = NO</p>
        ","f","html-keyboard-response","163","2.1.0","306003","F=YES, J=NO","x1tj8t00v4","0","74","68","80","","","","","","","","","gred","tunnel","pseudoword","pseudoword","j","false","",""
"9116","
    <div style=""max-width: 800px; margin: auto; text-align: left;"">
      <h2>Part 2: Main Trials</h2>
      <p>Great job on the practice trials!</p>
      <p>You will now begin the <strong>main set of trials</strong>.</p>
      <p>Remember your key assignments:</p>
      <ul>
        <li><strong>F</strong> = YES (real English word)</li>
        <li><strong>J</strong> = NO (not a real English word)</li>
      </ul>
      <p>Try to respond as <strong>quickly and accurately</strong> as possible.</p>
      <p style=""margin-top: 2em;"">Press any key to begin the main trials.</p>
    </div>
  ","j","html-keyboard-response","164","2.1.0","315121","F=YES, J=NO","x1tj8t00v4","0","74","68","80","","","","","","","","","","","","","","","",""
"1871","<p>Starting main block 1 of 8. Press any key to continue.</p>","j","html-keyboard-response","165","2.1.0","316994","F=YES, J=NO","x1tj8t00v4","0","74","68","80","","","","","","","","","","","","","","","",""
"null","<p style=""font-size: 50px;"">+</p>","null","html-keyboard-response","166","2.1.0","317298","F=YES, J=NO","x1tj8t00v4","0","74","68","80","","","","","","","","","","","","","","","",""
"null","audio/beep-329314.mp3","null","audio-keyboard-response","167","2.1.0","318832","F=YES, J=NO","x1tj8t00v4","0","74","68","80","","","","","","","","","","","","","","","",""
"null","audio/death1.wav","null","audio-keyboard-response","168","2.1.0","319332","F=YES, J=NO","x1tj8t00v4","0","74","68","80","","","","","","","","","","","","","","","",""
"792","
          <p id=""word"" style=""font-size: 40px;"">conquer</p>
          <p style=""font-size: 16px;"">F = YES &nbsp;&nbsp;&nbsp; J = NO</p>
        ","f","html-keyboard-response","169","2.1.0","320126","F=YES, J=NO","x1tj8t00v4","0","74","68","80","","","","","","","","","conquer","death1","metaphor","experimental","f","true","",""
"null","<p style=""font-size: 50px;"">+</p>","null","html-keyboard-response","170","2.1.0","320440","F=YES, J=NO","x1tj8t00v4","0","74","68","80","","","","","","","","","","","","","","","",""
"null","audio/beep-329314.mp3","null","audio-keyboard-response","171","2.1.0","321972","F=YES, J=NO","x1tj8t00v4","0","74","68","80","","","","","","","","","","","","","","","",""
"null","audio/planet1.wav","null","audio-keyboard-response","172","2.1.0","322612","F=YES, J=NO","x1tj8t00v4","0","74","68","80","","","","","","","","","","","","","","","",""
"776","
          <p id=""word"" style=""font-size: 40px;"">cratched</p>
          <p style=""font-size: 16px;"">F = YES &nbsp;&nbsp;&nbsp; J = NO</p>
        ","f","html-keyboard-response","173","2.1.0","323390","F=YES, J=NO","x1tj8t00v4","0","74","68","80","","","","","","","","","cratched","planet1","pseudoword","pseudoword","j","false","",""
"null","<p style=""font-size: 50px;"">+</p>","null","html-keyboard-response","174","2.1.0","323703","F=YES, J=NO","x1tj8t00v4","0","74","68","80","","","","","","","","","","","","","","","",""
"null","audio/beep-329314.mp3","null","audio-keyboard-response","175","2.1.0","325231","F=YES, J=NO","x1tj8t00v4","0","74","68","80","","","","","","","","","","","","","","","",""
"null","audio/skin1.wav","null","audio-keyboard-response","176","2.1.0","325831","F=YES, J=NO","x1tj8t00v4","0","74","68","80","","","","","","","","","","","","","","","",""
"635","
          <p id=""word"" style=""font-size: 40px;"">expose</p>
          <p style=""font-size: 16px;"">F = YES &nbsp;&nbsp;&nbsp; J = NO</p>
        ","f","html-keyboard-response","177","2.1.0","326468","F=YES, J=NO","x1tj8t00v4","0","74","68","80","","","","","","","","","expose","skin1","literal","experimental","f","true","",""
"null","<p style=""font-size: 50px;"">+</p>","null","html-keyboard-response","178","2.1.0","326770","F=YES, J=NO","x1tj8t00v4","0","74","68","80","","","","","","","","","","","","","","","",""
"null","audio/beep-329314.mp3","null","audio-keyboard-response","179","2.1.0","328312","F=YES, J=NO","x1tj8t00v4","0","74","68","80","","","","","","","","","","","","","","","",""
"null","audio/corpse1.wav","null","audio-keyboard-response","180","2.1.0","328972","F=YES, J=NO","x1tj8t00v4","0","74","68","80","","","","","","","","","","","","","","","",""
"747","
          <p id=""word"" style=""font-size: 40px;"">glonet</p>
          <p style=""font-size: 16px;"">F = YES &nbsp;&nbsp;&nbsp; J = NO</p>
        ","j","html-keyboard-response","181","2.1.0","329720","F=YES, J=NO","x1tj8t00v4","0","74","68","80","","","","","","","","","glonet","corpse1","pseudoword","pseudoword","j","true","",""
"null","<p style=""font-size: 50px;"">+</p>","null","html-keyboard-response","182","2.1.0","330026","F=YES, J=NO","x1tj8t00v4","0","74","68","80","","","","","","","","","","","","","","","",""
"null","audio/beep-329314.mp3","null","audio-keyboard-response","183","2.1.0","331552","F=YES, J=NO","x1tj8t00v4","0","74","68","80","","","","","","","","","","","","","","","",""
"null","audio/pig.wav","null","audio-keyboard-response","184","2.1.0","331971","F=YES, J=NO","x1tj8t00v4","0","74","68","80","","","","","","","","","","","","","","","",""
"1255","
          <p id=""word"" style=""font-size: 40px;"">tirlike</p>
          <p style=""font-size: 16px;"">F = YES &nbsp;&nbsp;&nbsp; J = NO</p>
        ","j","html-keyboard-response","185","2.1.0","333228","F=YES, J=NO","x1tj8t00v4","0","74","68","80","","","","","","","","","tirlike","pig","pseudoword","pseudoword","j","true","",""
"null","<p style=""font-size: 50px;"">+</p>","null","html-keyboard-response","186","2.1.0","333542","F=YES, J=NO","x1tj8t00v4","0","74","68","80","","","","","","","","","","","","","","","",""
"null","audio/beep-329314.mp3","null","audio-keyboard-response","187","2.1.0","335072","F=YES, J=NO","x1tj8t00v4","0","74","68","80","","","","","","","","","","","","","","","",""
"null","audio/pine.wav","null","audio-keyboard-response","188","2.1.0","335592","F=YES, J=NO","x1tj8t00v4","0","74","68","80","","","","","","","","","","","","","","","",""
"735","
          <p id=""word"" style=""font-size: 40px;"">crebble</p>
          <p style=""font-size: 16px;"">F = YES &nbsp;&nbsp;&nbsp; J = NO</p>
        ","f","html-keyboard-response","189","2.1.0","336329","F=YES, J=NO","x1tj8t00v4","0","74","68","80","","","","","","","","","crebble","pine","pseudoword","pseudoword","j","false","",""
"null","<p style=""font-size: 50px;"">+</p>","null","html-keyboard-response","190","2.1.0","336636","F=YES, J=NO","x1tj8t00v4","0","74","68","80","","","","","","","","","","","","","","","",""
"null","audio/beep-329314.mp3","null","audio-keyboard-response","191","2.1.0","338172","F=YES, J=NO","x1tj8t00v4","0","74","68","80","","","","","","","","","","","","","","","",""
"null","audio/trout1.wav","null","audio-keyboard-response","192","2.1.0","338791","F=YES, J=NO","x1tj8t00v4","0","74","68","80","","","","","","","","","","","","","","","",""
"817","
          <p id=""word"" style=""font-size: 40px;"">spimt</p>
          <p style=""font-size: 16px;"">F = YES &nbsp;&nbsp;&nbsp; J = NO</p>
        ","j","html-keyboard-response","193","2.1.0","339610","F=YES, J=NO","x1tj8t00v4","0","74","68","80","","","","","","","","","spimt","trout1","pseudoword","pseudoword","j","true","",""
"null","<p style=""font-size: 50px;"">+</p>","null","html-keyboard-response","194","2.1.0","339926","F=YES, J=NO","x1tj8t00v4","0","74","68","80","","","","","","","","","","","","","","","",""
"null","audio/beep-329314.mp3","null","audio-keyboard-response","195","2.1.0","341452","F=YES, J=NO","x1tj8t00v4","0","74","68","80","","","","","","","","","","","","","","","",""
"null","audio/life1.wav","null","audio-keyboard-response","196","2.1.0","342052","F=YES, J=NO","x1tj8t00v4","0","74","68","80","","","","","","","","","","","","","","","",""
"1096","
          <p id=""word"" style=""font-size: 40px;"">flimch</p>
          <p style=""font-size: 16px;"">F = YES &nbsp;&nbsp;&nbsp; J = NO</p>
        ","f","html-keyboard-response","197","2.1.0","343150","F=YES, J=NO","x1tj8t00v4","0","74","68","80","","","","","","","","","flimch","life1","pseudoword","pseudoword","j","false","",""
"null","<p style=""font-size: 50px;"">+</p>","null","html-keyboard-response","198","2.1.0","343460","F=YES, J=NO","x1tj8t00v4","0","74","68","80","","","","","","","","","","","","","","","",""
"null","audio/beep-329314.mp3","null","audio-keyboard-response","199","2.1.0","344992","F=YES, J=NO","x1tj8t00v4","0","74","68","80","","","","","","","","","","","","","","","",""
"null","audio/gold1.wav","null","audio-keyboard-response","200","2.1.0","345572","F=YES, J=NO","x1tj8t00v4","0","74","68","80","","","","","","","","","","","","","","","",""
"612","
          <p id=""word"" style=""font-size: 40px;"">sell</p>
          <p style=""font-size: 16px;"">F = YES &nbsp;&nbsp;&nbsp; J = NO</p>
        ","f","html-keyboard-response","201","2.1.0","346186","F=YES, J=NO","x1tj8t00v4","0","74","68","80","","","","","","","","","sell","gold1","literal","experimental","f","true","",""
"null","<p style=""font-size: 50px;"">+</p>","null","html-keyboard-response","202","2.1.0","346492","F=YES, J=NO","x1tj8t00v4","0","74","68","80","","","","","","","","","","","","","","","",""
"null","audio/beep-329314.mp3","null","audio-keyboard-response","203","2.1.0","348033","F=YES, J=NO","x1tj8t00v4","0","74","68","80","","","","","","","","","","","","","","","",""
"null","audio/bishop1.wav","null","audio-keyboard-response","204","2.1.0","348611","F=YES, J=NO","x1tj8t00v4","0","74","68","80","","","","","","","","","","","","","","","",""
"770","
          <p id=""word"" style=""font-size: 40px;"">devour</p>
          <p style=""font-size: 16px;"">F = YES &nbsp;&nbsp;&nbsp; J = NO</p>
        ","f","html-keyboard-response","205","2.1.0","349384","F=YES, J=NO","x1tj8t00v4","0","74","68","80","","","","","","","","","devour","bishop1","unrelated","experimental","f","true","",""
"null","<p style=""font-size: 50px;"">+</p>","null","html-keyboard-response","206","2.1.0","349691","F=YES, J=NO","x1tj8t00v4","0","74","68","80","","","","","","","","","","","","","","","",""
"null","audio/beep-329314.mp3","null","audio-keyboard-response","207","2.1.0","351232","F=YES, J=NO","x1tj8t00v4","0","74","68","80","","","","","","","","","","","","","","","",""
"null","audio/mouth1.wav","null","audio-keyboard-response","208","2.1.0","351832","F=YES, J=NO","x1tj8t00v4","0","74","68","80","","","","","","","","","","","","","","","",""
"768","
          <p id=""word"" style=""font-size: 40px;"">spolial</p>
          <p style=""font-size: 16px;"">F = YES &nbsp;&nbsp;&nbsp; J = NO</p>
        ","j","html-keyboard-response","209","2.1.0","352602","F=YES, J=NO","x1tj8t00v4","0","74","68","80","","","","","","","","","spolial","mouth1","pseudoword","pseudoword","j","true","",""
"null","<p style=""font-size: 50px;"">+</p>","null","html-keyboard-response","210","2.1.0","352918","F=YES, J=NO","x1tj8t00v4","0","74","68","80","","","","","","","","","","","","","","","",""
"null","audio/beep-329314.mp3","null","audio-keyboard-response","211","2.1.0","354452","F=YES, J=NO","x1tj8t00v4","0","74","68","80","","","","","","","","","","","","","","","",""
"null","audio/effort.wav","null","audio-keyboard-response","212","2.1.0","355072","F=YES, J=NO","x1tj8t00v4","0","74","68","80","","","","","","","","","","","","","","","",""
"954","
          <p id=""word"" style=""font-size: 40px;"">whonk</p>
          <p style=""font-size: 16px;"">F = YES &nbsp;&nbsp;&nbsp; J = NO</p>
        ","j","html-keyboard-response","213","2.1.0","356027","F=YES, J=NO","x1tj8t00v4","0","74","68","80","","","","","","","","","whonk","effort","pseudoword","pseudoword","j","true","",""
"null","<p style=""font-size: 50px;"">+</p>","null","html-keyboard-response","214","2.1.0","356342","F=YES, J=NO","x1tj8t00v4","0","74","68","80","","","","","","","","","","","","","","","",""
"null","audio/beep-329314.mp3","null","audio-keyboard-response","215","2.1.0","357872","F=YES, J=NO","x1tj8t00v4","0","74","68","80","","","","","","","","","","","","","","","",""
"null","audio/story.wav","null","audio-keyboard-response","216","2.1.0","358571","F=YES, J=NO","x1tj8t00v4","0","74","68","80","","","","","","","","","","","","","","","",""
"487","
          <p id=""word"" style=""font-size: 40px;"">cover</p>
          <p style=""font-size: 16px;"">F = YES &nbsp;&nbsp;&nbsp; J = NO</p>
        ","f","html-keyboard-response","217","2.1.0","359060","F=YES, J=NO","x1tj8t00v4","0","74","68","80","","","","","","","","","cover","story","metaphor","experimental","f","true","",""
"null","<p style=""font-size: 50px;"">+</p>","null","html-keyboard-response","218","2.1.0","359377","F=YES, J=NO","x1tj8t00v4","0","74","68","80","","","","","","","","","","","","","","","",""
"null","audio/beep-329314.mp3","null","audio-keyboard-response","219","2.1.0","360912","F=YES, J=NO","x1tj8t00v4","0","74","68","80","","","","","","","","","","","","","","","",""
"null","audio/client1.wav","null","audio-keyboard-response","220","2.1.0","361631","F=YES, J=NO","x1tj8t00v4","0","74","68","80","","","","","","","","","","","","","","","",""
"1073","
          <p id=""word"" style=""font-size: 40px;"">droothe</p>
          <p style=""font-size: 16px;"">F = YES &nbsp;&nbsp;&nbsp; J = NO</p>
        ","j","html-keyboard-response","221","2.1.0","362706","F=YES, J=NO","x1tj8t00v4","0","74","68","80","","","","","","","","","droothe","client1","pseudoword","pseudoword","j","true","",""
"null","<p style=""font-size: 50px;"">+</p>","null","html-keyboard-response","222","2.1.0","363009","F=YES, J=NO","x1tj8t00v4","0","74","68","80","","","","","","","","","","","","","","","",""
"null","audio/beep-329314.mp3","null","audio-keyboard-response","223","2.1.0","364552","F=YES, J=NO","x1tj8t00v4","0","74","68","80","","","","","","","","","","","","","","","",""
"null","audio/gossip1.wav","null","audio-keyboard-response","224","2.1.0","365211","F=YES, J=NO","x1tj8t00v4","0","74","68","80","","","","","","","","","","","","","","","",""
"566","
          <p id=""word"" style=""font-size: 40px;"">wrestle</p>
          <p style=""font-size: 16px;"">F = YES &nbsp;&nbsp;&nbsp; J = NO</p>
        ","f","html-keyboard-response","225","2.1.0","365779","F=YES, J=NO","x1tj8t00v4","0","74","68","80","","","","","","","","","wrestle","gossip1","unrelated","experimental","f","true","",""
"null","<p style=""font-size: 50px;"">+</p>","null","html-keyboard-response","226","2.1.0","366086","F=YES, J=NO","x1tj8t00v4","0","74","68","80","","","","","","","","","","","","","","","",""
"null","audio/beep-329314.mp3","null","audio-keyboard-response","227","2.1.0","367612","F=YES, J=NO","x1tj8t00v4","0","74","68","80","","","","","","","","","","","","","","","",""
"null","audio/truth1.wav","null","audio-keyboard-response","228","2.1.0","368171","F=YES, J=NO","x1tj8t00v4","0","74","68","80","","","","","","","","","","","","","","","",""
"913","
          <p id=""word"" style=""font-size: 40px;"">calitom</p>
          <p style=""font-size: 16px;"">F = YES &nbsp;&nbsp;&nbsp; J = NO</p>
        ","j","html-keyboard-response","229","2.1.0","369086","F=YES, J=NO","x1tj8t00v4","0","74","68","80","","","","","","","","","calitom","truth1","pseudoword","pseudoword","j","true","",""
"1791","<p>Excellent! You have finished block 1 of 8.</p>
                     <p>Feel free to take a 30 second break.</p>
                     <p>Press any key when you're ready to continue.</p>","j","html-keyboard-response","230","2.1.0","370878","F=YES, J=NO","x1tj8t00v4","0","74","68","80","","","","","","","","","","","","","","","",""
"529","<p>Starting main block 2 of 8. Press any key to continue.</p>","j","html-keyboard-response","231","2.1.0","371410","F=YES, J=NO","x1tj8t00v4","0","74","68","80","","","","","","","","","","","","","","","",""
"null","<p style=""font-size: 50px;"">+</p>","null","html-keyboard-response","232","2.1.0","371719","F=YES, J=NO","x1tj8t00v4","0","74","68","80","","","","","","","","","","","","","","","",""
"null","audio/beep-329314.mp3","null","audio-keyboard-response","233","2.1.0","373252","F=YES, J=NO","x1tj8t00v4","0","74","68","80","","","","","","","","","","","","","","","",""
"null","audio/breath.wav","null","audio-keyboard-response","234","2.1.0","373852","F=YES, J=NO","x1tj8t00v4","0","74","68","80","","","","","","","","","","","","","","","",""
"1007","
          <p id=""word"" style=""font-size: 40px;"">pack</p>
          <p style=""font-size: 16px;"">F = YES &nbsp;&nbsp;&nbsp; J = NO</p>
        ","f","html-keyboard-response","235","2.1.0","374860","F=YES, J=NO","x1tj8t00v4","0","74","68","80","","","","","","","","","pack","breath","filler","filler","f","true","",""
"null","<p style=""font-size: 50px;"">+</p>","null","html-keyboard-response","236","2.1.0","375168","F=YES, J=NO","x1tj8t00v4","0","74","68","80","","","","","","","","","","","","","","","",""
"null","audio/beep-329314.mp3","null","audio-keyboard-response","237","2.1.0","376692","F=YES, J=NO","x1tj8t00v4","0","74","68","80","","","","","","","","","","","","","","","",""
"null","audio/heart1.wav","null","audio-keyboard-response","238","2.1.0","377352","F=YES, J=NO","x1tj8t00v4","0","74","68","80","","","","","","","","","","","","","","","",""
"485","
          <p id=""word"" style=""font-size: 40px;"">touch</p>
          <p style=""font-size: 16px;"">F = YES &nbsp;&nbsp;&nbsp; J = NO</p>
        ","f","html-keyboard-response","239","2.1.0","377839","F=YES, J=NO","x1tj8t00v4","0","74","68","80","","","","","","","","","touch","heart1","metaphor","experimental","f","true","",""
"null","<p style=""font-size: 50px;"">+</p>","null","html-keyboard-response","240","2.1.0","378143","F=YES, J=NO","x1tj8t00v4","0","74","68","80","","","","","","","","","","","","","","","",""
"null","audio/beep-329314.mp3","null","audio-keyboard-response","241","2.1.0","379672","F=YES, J=NO","x1tj8t00v4","0","74","68","80","","","","","","","","","","","","","","","",""
"null","audio/effort.wav","null","audio-keyboard-response","242","2.1.0","380251","F=YES, J=NO","x1tj8t00v4","0","74","68","80","","","","","","","","","","","","","","","",""
"550","
          <p id=""word"" style=""font-size: 40px;"">invest</p>
          <p style=""font-size: 16px;"">F = YES &nbsp;&nbsp;&nbsp; J = NO</p>
        ","f","html-keyboard-response","243","2.1.0","380803","F=YES, J=NO","x1tj8t00v4","0","74","68","80","","","","","","","","","invest","effort","metaphor","experimental","f","true","",""
"null","<p style=""font-size: 50px;"">+</p>","null","html-keyboard-response","244","2.1.0","381109","F=YES, J=NO","x1tj8t00v4","0","74","68","80","","","","","","","","","","","","","","","",""
"null","audio/beep-329314.mp3","null","audio-keyboard-response","245","2.1.0","382632","F=YES, J=NO","x1tj8t00v4","0","74","68","80","","","","","","","","","","","","","","","",""
"null","audio/beach1.wav","null","audio-keyboard-response","246","2.1.0","383211","F=YES, J=NO","x1tj8t00v4","0","74","68","80","","","","","","","","","","","","","","","",""
"554","
          <p id=""word"" style=""font-size: 40px;"">cut</p>
          <p style=""font-size: 16px;"">F = YES &nbsp;&nbsp;&nbsp; J = NO</p>
        ","f","html-keyboard-response","247","2.1.0","383767","F=YES, J=NO","x1tj8t00v4","0","74","68","80","","","","","","","","","cut","beach1","unrelated","experimental","f","true","",""
"null","<p style=""font-size: 50px;"">+</p>","null","html-keyboard-response","248","2.1.0","384071","F=YES, J=NO","x1tj8t00v4","0","74","68","80","","","","","","","","","","","","","","","",""
"null","audio/beep-329314.mp3","null","audio-keyboard-response","249","2.1.0","385612","F=YES, J=NO","x1tj8t00v4","0","74","68","80","","","","","","","","","","","","","","","",""
"null","audio/golf1.wav","null","audio-keyboard-response","250","2.1.0","386212","F=YES, J=NO","x1tj8t00v4","0","74","68","80","","","","","","","","","","","","","","","",""
"1074","
          <p id=""word"" style=""font-size: 40px;"">drabble</p>
          <p style=""font-size: 16px;"">F = YES &nbsp;&nbsp;&nbsp; J = NO</p>
        ","f","html-keyboard-response","251","2.1.0","387288","F=YES, J=NO","x1tj8t00v4","0","74","68","80","","","","","","","","","drabble","golf1","pseudoword","pseudoword","j","false","",""
"null","<p style=""font-size: 50px;"">+</p>","null","html-keyboard-response","252","2.1.0","387596","F=YES, J=NO","x1tj8t00v4","0","74","68","80","","","","","","","","","","","","","","","",""
"null","audio/beep-329314.mp3","null","audio-keyboard-response","253","2.1.0","389132","F=YES, J=NO","x1tj8t00v4","0","74","68","80","","","","","","","","","","","","","","","",""
"null","audio/train.wav","null","audio-keyboard-response","254","2.1.0","389672","F=YES, J=NO","x1tj8t00v4","0","74","68","80","","","","","","","","","","","","","","","",""
"751","
          <p id=""word"" style=""font-size: 40px;"">catch</p>
          <p style=""font-size: 16px;"">F = YES &nbsp;&nbsp;&nbsp; J = NO</p>
        ","f","html-keyboard-response","255","2.1.0","390425","F=YES, J=NO","x1tj8t00v4","0","74","68","80","","","","","","","","","catch","train","metaphor","experimental","f","true","",""
"null","<p style=""font-size: 50px;"">+</p>","null","html-keyboard-response","256","2.1.0","390729","F=YES, J=NO","x1tj8t00v4","0","74","68","80","","","","","","","","","","","","","","","",""
"null","audio/beep-329314.mp3","null","audio-keyboard-response","257","2.1.0","392252","F=YES, J=NO","x1tj8t00v4","0","74","68","80","","","","","","","","","","","","","","","",""
"null","audio/tax1.wav","null","audio-keyboard-response","258","2.1.0","392912","F=YES, J=NO","x1tj8t00v4","0","74","68","80","","","","","","","","","","","","","","","",""
"714","
          <p id=""word"" style=""font-size: 40px;"">scrap</p>
          <p style=""font-size: 16px;"">F = YES &nbsp;&nbsp;&nbsp; J = NO</p>
        ","f","html-keyboard-response","259","2.1.0","393628","F=YES, J=NO","x1tj8t00v4","0","74","68","80","","","","","","","","","scrap","tax1","metaphor","experimental","f","true","",""
"null","<p style=""font-size: 50px;"">+</p>","null","html-keyboard-response","260","2.1.0","393935","F=YES, J=NO","x1tj8t00v4","0","74","68","80","","","","","","","","","","","","","","","",""
"null","audio/beep-329314.mp3","null","audio-keyboard-response","261","2.1.0","395473","F=YES, J=NO","x1tj8t00v4","0","74","68","80","","","","","","","","","","","","","","","",""
"null","audio/cave1.wav","null","audio-keyboard-response","262","2.1.0","396052","F=YES, J=NO","x1tj8t00v4","0","74","68","80","","","","","","","","","","","","","","","",""
"602","
          <p id=""word"" style=""font-size: 40px;"">blacket</p>
          <p style=""font-size: 16px;"">F = YES &nbsp;&nbsp;&nbsp; J = NO</p>
        ","f","html-keyboard-response","263","2.1.0","396655","F=YES, J=NO","x1tj8t00v4","0","74","68","80","","","","","","","","","blacket","cave1","pseudoword","pseudoword","j","false","",""
"null","<p style=""font-size: 50px;"">+</p>","null","html-keyboard-response","264","2.1.0","396958","F=YES, J=NO","x1tj8t00v4","0","74","68","80","","","","","","","","","","","","","","","",""
"null","audio/beep-329314.mp3","null","audio-keyboard-response","265","2.1.0","398492","F=YES, J=NO","x1tj8t00v4","0","74","68","80","","","","","","","","","","","","","","","",""
"null","audio/show.wav","null","audio-keyboard-response","266","2.1.0","399031","F=YES, J=NO","x1tj8t00v4","0","74","68","80","","","","","","","","","","","","","","","",""
"519","
          <p id=""word"" style=""font-size: 40px;"">hold</p>
          <p style=""font-size: 16px;"">F = YES &nbsp;&nbsp;&nbsp; J = NO</p>
        ","f","html-keyboard-response","267","2.1.0","399552","F=YES, J=NO","x1tj8t00v4","0","74","68","80","","","","","","","","","hold","show","metaphor","experimental","f","true","",""
"null","<p style=""font-size: 50px;"">+</p>","null","html-keyboard-response","268","2.1.0","399861","F=YES, J=NO","x1tj8t00v4","0","74","68","80","","","","","","","","","","","","","","","",""
"null","audio/beep-329314.mp3","null","audio-keyboard-response","269","2.1.0","401392","F=YES, J=NO","x1tj8t00v4","0","74","68","80","","","","","","","","","","","","","","","",""
"null","audio/battle1.wav","null","audio-keyboard-response","270","2.1.0","401892","F=YES, J=NO","x1tj8t00v4","0","74","68","80","","","","","","","","","","","","","","","",""
"879","
          <p id=""word"" style=""font-size: 40px;"">boil</p>
          <p style=""font-size: 16px;"">F = YES &nbsp;&nbsp;&nbsp; J = NO</p>
        ","f","html-keyboard-response","271","2.1.0","402772","F=YES, J=NO","x1tj8t00v4","0","74","68","80","","","","","","","","","boil","battle1","filler","filler","f","true","",""
"null","<p style=""font-size: 50px;"">+</p>","null","html-keyboard-response","272","2.1.0","403077","F=YES, J=NO","x1tj8t00v4","0","74","68","80","","","","","","","","","","","","","","","",""
"null","audio/beep-329314.mp3","null","audio-keyboard-response","273","2.1.0","404611","F=YES, J=NO","x1tj8t00v4","0","74","68","80","","","","","","","","","","","","","","","",""
"null","audio/burden.wav","null","audio-keyboard-response","274","2.1.0","405151","F=YES, J=NO","x1tj8t00v4","0","74","68","80","","","","","","","","","","","","","","","",""
"823","
          <p id=""word"" style=""font-size: 40px;"">whotth</p>
          <p style=""font-size: 16px;"">F = YES &nbsp;&nbsp;&nbsp; J = NO</p>
        ","j","html-keyboard-response","275","2.1.0","405976","F=YES, J=NO","x1tj8t00v4","0","74","68","80","","","","","","","","","whotth","burden","pseudoword","pseudoword","j","true","",""
"null","<p style=""font-size: 50px;"">+</p>","null","html-keyboard-response","276","2.1.0","406286","F=YES, J=NO","x1tj8t00v4","0","74","68","80","","","","","","","","","","","","","","","",""
"null","audio/beep-329314.mp3","null","audio-keyboard-response","277","2.1.0","407812","F=YES, J=NO","x1tj8t00v4","0","74","68","80","","","","","","","","","","","","","","","",""
"null","audio/window1.wav","null","audio-keyboard-response","278","2.1.0","408451","F=YES, J=NO","x1tj8t00v4","0","74","68","80","","","","","","","","","","","","","","","",""
"482","
          <p id=""word"" style=""font-size: 40px;"">break</p>
          <p style=""font-size: 16px;"">F = YES &nbsp;&nbsp;&nbsp; J = NO</p>
        ","f","html-keyboard-response","279","2.1.0","408935","F=YES, J=NO","x1tj8t00v4","0","74","68","80","","","","","","","","","break","window1","literal","experimental","f","true","",""
"null","<p style=""font-size: 50px;"">+</p>","null","html-keyboard-response","280","2.1.0","409244","F=YES, J=NO","x1tj8t00v4","0","74","68","80","","","","","","","","","","","","","","","",""
"null","audio/beep-329314.mp3","null","audio-keyboard-response","281","2.1.0","410772","F=YES, J=NO","x1tj8t00v4","0","74","68","80","","","","","","","","","","","","","","","",""
"null","audio/road.wav","null","audio-keyboard-response","282","2.1.0","411232","F=YES, J=NO","x1tj8t00v4","0","74","68","80","","","","","","","","","","","","","","","",""
"800","
          <p id=""word"" style=""font-size: 40px;"">wappings</p>
          <p style=""font-size: 16px;"">F = YES &nbsp;&nbsp;&nbsp; J = NO</p>
        ","f","html-keyboard-response","283","2.1.0","412034","F=YES, J=NO","x1tj8t00v4","0","74","68","80","","","","","","","","","wappings","road","pseudoword","pseudoword","j","false","",""
"null","<p style=""font-size: 50px;"">+</p>","null","html-keyboard-response","284","2.1.0","412344","F=YES, J=NO","x1tj8t00v4","0","74","68","80","","","","","","","","","","","","","","","",""
"null","audio/beep-329314.mp3","null","audio-keyboard-response","285","2.1.0","413872","F=YES, J=NO","x1tj8t00v4","0","74","68","80","","","","","","","","","","","","","","","",""
"null","audio/mind.wav","null","audio-keyboard-response","286","2.1.0","414472","F=YES, J=NO","x1tj8t00v4","0","74","68","80","","","","","","","","","","","","","","","",""
"1000","
          <p id=""word"" style=""font-size: 40px;"">crainate</p>
          <p style=""font-size: 16px;"">F = YES &nbsp;&nbsp;&nbsp; J = NO</p>
        ","j","html-keyboard-response","287","2.1.0","415473","F=YES, J=NO","x1tj8t00v4","0","74","68","80","","","","","","","","","crainate","mind","pseudoword","pseudoword","j","true","",""
"null","<p style=""font-size: 50px;"">+</p>","null","html-keyboard-response","288","2.1.0","415779","F=YES, J=NO","x1tj8t00v4","0","74","68","80","","","","","","","","","","","","","","","",""
"null","audio/beep-329314.mp3","null","audio-keyboard-response","289","2.1.0","417312","F=YES, J=NO","x1tj8t00v4","0","74","68","80","","","","","","","","","","","","","","","",""
"null","audio/haste1.wav","null","audio-keyboard-response","290","2.1.0","417871","F=YES, J=NO","x1tj8t00v4","0","74","68","80","","","","","","","","","","","","","","","",""
"508","
          <p id=""word"" style=""font-size: 40px;"">hide</p>
          <p style=""font-size: 16px;"">F = YES &nbsp;&nbsp;&nbsp; J = NO</p>
        ","f","html-keyboard-response","291","2.1.0","418382","F=YES, J=NO","x1tj8t00v4","0","74","68","80","","","","","","","","","hide","haste1","unrelated","experimental","f","true","",""
"null","<p style=""font-size: 50px;"">+</p>","null","html-keyboard-response","292","2.1.0","418693","F=YES, J=NO","x1tj8t00v4","0","74","68","80","","","","","","","","","","","","","","","",""
"null","audio/beep-329314.mp3","null","audio-keyboard-response","293","2.1.0","420232","F=YES, J=NO","x1tj8t00v4","0","74","68","80","","","","","","","","","","","","","","","",""
"null","audio/foe1.wav","null","audio-keyboard-response","294","2.1.0","420771","F=YES, J=NO","x1tj8t00v4","0","74","68","80","","","","","","","","","","","","","","","",""
"958","
          <p id=""word"" style=""font-size: 40px;"">creth</p>
          <p style=""font-size: 16px;"">F = YES &nbsp;&nbsp;&nbsp; J = NO</p>
        ","f","html-keyboard-response","295","2.1.0","421731","F=YES, J=NO","x1tj8t00v4","0","74","68","80","","","","","","","","","creth","foe1","pseudoword","pseudoword","j","false","",""
"1098","<p>Excellent! You have finished block 2 of 8.</p>
                     <p>Feel free to take a 30 second break.</p>
                     <p>Press any key when you're ready to continue.</p>","f","html-keyboard-response","296","2.1.0","422831","F=YES, J=NO","x1tj8t00v4","0","74","68","80","","","","","","","","","","","","","","","",""
"665","<p>Starting main block 3 of 8. Press any key to continue.</p>","f","html-keyboard-response","297","2.1.0","423497","F=YES, J=NO","x1tj8t00v4","0","74","68","80","","","","","","","","","","","","","","","",""
"null","<p style=""font-size: 50px;"">+</p>","null","html-keyboard-response","298","2.1.0","423810","F=YES, J=NO","x1tj8t00v4","0","74","68","80","","","","","","","","","","","","","","","",""
"null","audio/beep-329314.mp3","null","audio-keyboard-response","299","2.1.0","425352","F=YES, J=NO","x1tj8t00v4","0","74","68","80","","","","","","","","","","","","","","","",""
"null","audio/pride1.wav","null","audio-keyboard-response","300","2.1.0","425932","F=YES, J=NO","x1tj8t00v4","0","74","68","80","","","","","","","","","","","","","","","",""
"522","
          <p id=""word"" style=""font-size: 40px;"">hurt</p>
          <p style=""font-size: 16px;"">F = YES &nbsp;&nbsp;&nbsp; J = NO</p>
        ","f","html-keyboard-response","301","2.1.0","426456","F=YES, J=NO","x1tj8t00v4","0","74","68","80","","","","","","","","","hurt","pride1","metaphor","experimental","f","true","",""
"null","<p style=""font-size: 50px;"">+</p>","null","html-keyboard-response","302","2.1.0","426761","F=YES, J=NO","x1tj8t00v4","0","74","68","80","","","","","","","","","","","","","","","",""
"null","audio/beep-329314.mp3","null","audio-keyboard-response","303","2.1.0","428292","F=YES, J=NO","x1tj8t00v4","0","74","68","80","","","","","","","","","","","","","","","",""
"null","audio/pattern.wav","null","audio-keyboard-response","304","2.1.0","428832","F=YES, J=NO","x1tj8t00v4","0","74","68","80","","","","","","","","","","","","","","","",""
"621","
          <p id=""word"" style=""font-size: 40px;"">defeat</p>
          <p style=""font-size: 16px;"">F = YES &nbsp;&nbsp;&nbsp; J = NO</p>
        ","f","html-keyboard-response","305","2.1.0","429455","F=YES, J=NO","x1tj8t00v4","0","74","68","80","","","","","","","","","defeat","pattern","unrelated","experimental","f","true","",""
"null","<p style=""font-size: 50px;"">+</p>","null","html-keyboard-response","306","2.1.0","429762","F=YES, J=NO","x1tj8t00v4","0","74","68","80","","","","","","","","","","","","","","","",""
"null","audio/beep-329314.mp3","null","audio-keyboard-response","307","2.1.0","431291","F=YES, J=NO","x1tj8t00v4","0","74","68","80","","","","","","","","","","","","","","","",""
"null","audio/stain.wav","null","audio-keyboard-response","308","2.1.0","431972","F=YES, J=NO","x1tj8t00v4","0","74","68","80","","","","","","","","","","","","","","","",""
"888","
          <p id=""word"" style=""font-size: 40px;"">rumpsied</p>
          <p style=""font-size: 16px;"">F = YES &nbsp;&nbsp;&nbsp; J = NO</p>
        ","j","html-keyboard-response","309","2.1.0","432862","F=YES, J=NO","x1tj8t00v4","0","74","68","80","","","","","","","","","rumpsied","stain","pseudoword","pseudoword","j","true","",""
"null","<p style=""font-size: 50px;"">+</p>","null","html-keyboard-response","310","2.1.0","433169","F=YES, J=NO","x1tj8t00v4","0","74","68","80","","","","","","","","","","","","","","","",""
"null","audio/beep-329314.mp3","null","audio-keyboard-response","311","2.1.0","434692","F=YES, J=NO","x1tj8t00v4","0","74","68","80","","","","","","","","","","","","","","","",""
"null","audio/storm1.wav","null","audio-keyboard-response","312","2.1.0","435352","F=YES, J=NO","x1tj8t00v4","0","74","68","80","","","","","","","","","","","","","","","",""
"483","
          <p id=""word"" style=""font-size: 40px;"">climb</p>
          <p style=""font-size: 16px;"">F = YES &nbsp;&nbsp;&nbsp; J = NO</p>
        ","f","html-keyboard-response","313","2.1.0","435837","F=YES, J=NO","x1tj8t00v4","0","74","68","80","","","","","","","","","climb","storm1","unrelated","experimental","f","true","",""
"null","<p style=""font-size: 50px;"">+</p>","null","html-keyboard-response","314","2.1.0","436146","F=YES, J=NO","x1tj8t00v4","0","74","68","80","","","","","","","","","","","","","","","",""
"null","audio/beep-329314.mp3","null","audio-keyboard-response","315","2.1.0","437671","F=YES, J=NO","x1tj8t00v4","0","74","68","80","","","","","","","","","","","","","","","",""
"null","audio/desire.wav","null","audio-keyboard-response","316","2.1.0","438331","F=YES, J=NO","x1tj8t00v4","0","74","68","80","","","","","","","","","","","","","","","",""
"791","
          <p id=""word"" style=""font-size: 40px;"">nophed</p>
          <p style=""font-size: 16px;"">F = YES &nbsp;&nbsp;&nbsp; J = NO</p>
        ","j","html-keyboard-response","317","2.1.0","439124","F=YES, J=NO","x1tj8t00v4","0","74","68","80","","","","","","","","","nophed","desire","pseudoword","pseudoword","j","true","",""
"null","<p style=""font-size: 50px;"">+</p>","null","html-keyboard-response","318","2.1.0","439428","F=YES, J=NO","x1tj8t00v4","0","74","68","80","","","","","","","","","","","","","","","",""
"null","audio/beep-329314.mp3","null","audio-keyboard-response","319","2.1.0","440952","F=YES, J=NO","x1tj8t00v4","0","74","68","80","","","","","","","","","","","","","","","",""
"null","audio/foot1.wav","null","audio-keyboard-response","320","2.1.0","441532","F=YES, J=NO","x1tj8t00v4","0","74","68","80","","","","","","","","","","","","","","","",""
"846","
          <p id=""word"" style=""font-size: 40px;"">thrutt</p>
          <p style=""font-size: 16px;"">F = YES &nbsp;&nbsp;&nbsp; J = NO</p>
        ","j","html-keyboard-response","321","2.1.0","442379","F=YES, J=NO","x1tj8t00v4","0","74","68","80","","","","","","","","","thrutt","foot1","pseudoword","pseudoword","j","true","",""
"null","<p style=""font-size: 50px;"">+</p>","null","html-keyboard-response","322","2.1.0","442689","F=YES, J=NO","x1tj8t00v4","0","74","68","80","","","","","","","","","","","","","","","",""
"null","audio/beep-329314.mp3","null","audio-keyboard-response","323","2.1.0","444212","F=YES, J=NO","x1tj8t00v4","0","74","68","80","","","","","","","","","","","","","","","",""
"null","audio/arm.wav","null","audio-keyboard-response","324","2.1.0","444752","F=YES, J=NO","x1tj8t00v4","0","74","68","80","","","","","","","","","","","","","","","",""
"1169","
          <p id=""word"" style=""font-size: 40px;"">pigne</p>
          <p style=""font-size: 16px;"">F = YES &nbsp;&nbsp;&nbsp; J = NO</p>
        ","f","html-keyboard-response","325","2.1.0","445922","F=YES, J=NO","x1tj8t00v4","0","74","68","80","","","","","","","","","pigne","arm","pseudoword","pseudoword","j","false","",""
"null","<p style=""font-size: 50px;"">+</p>","null","html-keyboard-response","326","2.1.0","446227","F=YES, J=NO","x1tj8t00v4","0","74","68","80","","","","","","","","","","","","","","","",""
"null","audio/beep-329314.mp3","null","audio-keyboard-response","327","2.1.0","447752","F=YES, J=NO","x1tj8t00v4","0","74","68","80","","","","","","","","","","","","","","","",""
"null","audio/mile1.wav","null","audio-keyboard-response","328","2.1.0","448272","F=YES, J=NO","x1tj8t00v4","0","74","68","80","","","","","","","","","","","","","","","",""
"440","
          <p id=""word"" style=""font-size: 40px;"">run</p>
          <p style=""font-size: 16px;"">F = YES &nbsp;&nbsp;&nbsp; J = NO</p>
        ","f","html-keyboard-response","329","2.1.0","448713","F=YES, J=NO","x1tj8t00v4","0","74","68","80","","","","","","","","","run","mile1","literal","experimental","f","true","",""
"null","<p style=""font-size: 50px;"">+</p>","null","html-keyboard-response","330","2.1.0","449026","F=YES, J=NO","x1tj8t00v4","0","74","68","80","","","","","","","","","","","","","","","",""
"null","audio/beep-329314.mp3","null","audio-keyboard-response","331","2.1.0","450551","F=YES, J=NO","x1tj8t00v4","0","74","68","80","","","","","","","","","","","","","","","",""
"null","audio/bottle.wav","null","audio-keyboard-response","332","2.1.0","451052","F=YES, J=NO","x1tj8t00v4","0","74","68","80","","","","","","","","","","","","","","","",""
"487","
          <p id=""word"" style=""font-size: 40px;"">watch</p>
          <p style=""font-size: 16px;"">F = YES &nbsp;&nbsp;&nbsp; J = NO</p>
        ","f","html-keyboard-response","333","2.1.0","451541","F=YES, J=NO","x1tj8t00v4","0","74","68","80","","","","","","","","","watch","bottle","filler","filler","f","true","",""
"null","<p style=""font-size: 50px;"">+</p>","null","html-keyboard-response","334","2.1.0","451846","F=YES, J=NO","x1tj8t00v4","0","74","68","80","","","","","","","","","","","","","","","",""
"null","audio/beep-329314.mp3","null","audio-keyboard-response","335","2.1.0","453372","F=YES, J=NO","x1tj8t00v4","0","74","68","80","","","","","","","","","","","","","","","",""
"null","audio/bush1.wav","null","audio-keyboard-response","336","2.1.0","453872","F=YES, J=NO","x1tj8t00v4","0","74","68","80","","","","","","","","","","","","","","","",""
"525","
          <p id=""word"" style=""font-size: 40px;"">platined</p>
          <p style=""font-size: 16px;"">F = YES &nbsp;&nbsp;&nbsp; J = NO</p>
        ","f","html-keyboard-response","337","2.1.0","454398","F=YES, J=NO","x1tj8t00v4","0","74","68","80","","","","","","","","","platined","bush1","pseudoword","pseudoword","j","false","",""
"null","<p style=""font-size: 50px;"">+</p>","null","html-keyboard-response","338","2.1.0","454710","F=YES, J=NO","x1tj8t00v4","0","74","68","80","","","","","","","","","","","","","","","",""
"null","audio/beep-329314.mp3","null","audio-keyboard-response","339","2.1.0","456252","F=YES, J=NO","x1tj8t00v4","0","74","68","80","","","","","","","","","","","","","","","",""
"null","audio/bomb1.wav","null","audio-keyboard-response","340","2.1.0","456631","F=YES, J=NO","x1tj8t00v4","0","74","68","80","","","","","","","","","","","","","","","",""
"489","
          <p id=""word"" style=""font-size: 40px;"">drop</p>
          <p style=""font-size: 16px;"">F = YES &nbsp;&nbsp;&nbsp; J = NO</p>
        ","f","html-keyboard-response","341","2.1.0","457122","F=YES, J=NO","x1tj8t00v4","0","74","68","80","","","","","","","","","drop","bomb1","literal","experimental","f","true","",""
"null","<p style=""font-size: 50px;"">+</p>","null","html-keyboard-response","342","2.1.0","457428","F=YES, J=NO","x1tj8t00v4","0","74","68","80","","","","","","","","","","","","","","","",""
"null","audio/beep-329314.mp3","null","audio-keyboard-response","343","2.1.0","458952","F=YES, J=NO","x1tj8t00v4","0","74","68","80","","","","","","","","","","","","","","","",""
"null","audio/roof1.wav","null","audio-keyboard-response","344","2.1.0","459531","F=YES, J=NO","x1tj8t00v4","0","74","68","80","","","","","","","","","","","","","","","",""
"548","
          <p id=""word"" style=""font-size: 40px;"">construct</p>
          <p style=""font-size: 16px;"">F = YES &nbsp;&nbsp;&nbsp; J = NO</p>
        ","f","html-keyboard-response","345","2.1.0","460081","F=YES, J=NO","x1tj8t00v4","0","74","68","80","","","","","","","","","construct","roof1","literal","experimental","f","true","",""
"null","<p style=""font-size: 50px;"">+</p>","null","html-keyboard-response","346","2.1.0","460386","F=YES, J=NO","x1tj8t00v4","0","74","68","80","","","","","","","","","","","","","","","",""
"null","audio/beep-329314.mp3","null","audio-keyboard-response","347","2.1.0","461913","F=YES, J=NO","x1tj8t00v4","0","74","68","80","","","","","","","","","","","","","","","",""
"null","audio/neck.wav","null","audio-keyboard-response","348","2.1.0","462492","F=YES, J=NO","x1tj8t00v4","0","74","68","80","","","","","","","","","","","","","","","",""
"505","
          <p id=""word"" style=""font-size: 40px;"">share</p>
          <p style=""font-size: 16px;"">F = YES &nbsp;&nbsp;&nbsp; J = NO</p>
        ","f","html-keyboard-response","349","2.1.0","462999","F=YES, J=NO","x1tj8t00v4","0","74","68","80","","","","","","","","","share","neck","unrelated","experimental","f","true","",""
"null","<p style=""font-size: 50px;"">+</p>","null","html-keyboard-response","350","2.1.0","463311","F=YES, J=NO","x1tj8t00v4","0","74","68","80","","","","","","","","","","","","","","","",""
"null","audio/beep-329314.mp3","null","audio-keyboard-response","351","2.1.0","464852","F=YES, J=NO","x1tj8t00v4","0","74","68","80","","","","","","","","","","","","","","","",""
"null","audio/pain1.wav","null","audio-keyboard-response","352","2.1.0","465332","F=YES, J=NO","x1tj8t00v4","0","74","68","80","","","","","","","","","","","","","","","",""
"1083","
          <p id=""word"" style=""font-size: 40px;"">tritted</p>
          <p style=""font-size: 16px;"">F = YES &nbsp;&nbsp;&nbsp; J = NO</p>
        ","f","html-keyboard-response","353","2.1.0","466416","F=YES, J=NO","x1tj8t00v4","0","74","68","80","","","","","","","","","tritted","pain1","pseudoword","pseudoword","j","false","",""
"null","<p style=""font-size: 50px;"">+</p>","null","html-keyboard-response","354","2.1.0","466728","F=YES, J=NO","x1tj8t00v4","0","74","68","80","","","","","","","","","","","","","","","",""
"null","audio/beep-329314.mp3","null","audio-keyboard-response","355","2.1.0","468252","F=YES, J=NO","x1tj8t00v4","0","74","68","80","","","","","","","","","","","","","","","",""
"null","audio/ankle1.wav","null","audio-keyboard-response","356","2.1.0","468812","F=YES, J=NO","x1tj8t00v4","0","74","68","80","","","","","","","","","","","","","","","",""
"510","
          <p id=""word"" style=""font-size: 40px;"">kick</p>
          <p style=""font-size: 16px;"">F = YES &nbsp;&nbsp;&nbsp; J = NO</p>
        ","f","html-keyboard-response","357","2.1.0","469323","F=YES, J=NO","x1tj8t00v4","0","74","68","80","","","","","","","","","kick","ankle1","filler","filler","f","true","",""
"null","<p style=""font-size: 50px;"">+</p>","null","html-keyboard-response","358","2.1.0","469637","F=YES, J=NO","x1tj8t00v4","0","74","68","80","","","","","","","","","","","","","","","",""
"null","audio/beep-329314.mp3","null","audio-keyboard-response","359","2.1.0","471172","F=YES, J=NO","x1tj8t00v4","0","74","68","80","","","","","","","","","","","","","","","",""
"null","audio/mirror1.wav","null","audio-keyboard-response","360","2.1.0","471632","F=YES, J=NO","x1tj8t00v4","0","74","68","80","","","","","","","","","","","","","","","",""
"500","
          <p id=""word"" style=""font-size: 40px;"">fight</p>
          <p style=""font-size: 16px;"">F = YES &nbsp;&nbsp;&nbsp; J = NO</p>
        ","f","html-keyboard-response","361","2.1.0","472133","F=YES, J=NO","x1tj8t00v4","0","74","68","80","","","","","","","","","fight","mirror1","unrelated","experimental","f","true","",""
"1096","<p>Excellent! You have finished block 3 of 8.</p>
                     <p>Feel free to take a 30 second break.</p>
                     <p>Press any key when you're ready to continue.</p>","f","html-keyboard-response","362","2.1.0","473230","F=YES, J=NO","x1tj8t00v4","0","74","68","80","","","","","","","","","","","","","","","",""
"493","<p>Starting main block 4 of 8. Press any key to continue.</p>","f","html-keyboard-response","363","2.1.0","473724","F=YES, J=NO","x1tj8t00v4","0","74","68","80","","","","","","","","","","","","","","","",""
"null","<p style=""font-size: 50px;"">+</p>","null","html-keyboard-response","364","2.1.0","474027","F=YES, J=NO","x1tj8t00v4","0","74","68","80","","","","","","","","","","","","","","","",""
"null","audio/beep-329314.mp3","null","audio-keyboard-response","365","2.1.0","475552","F=YES, J=NO","x1tj8t00v4","0","74","68","80","","","","","","","","","","","","","","","",""
"null","audio/butter1.wav","null","audio-keyboard-response","366","2.1.0","476032","F=YES, J=NO","x1tj8t00v4","0","74","68","80","","","","","","","","","","","","","","","",""
"535","
          <p id=""word"" style=""font-size: 40px;"">spread</p>
          <p style=""font-size: 16px;"">F = YES &nbsp;&nbsp;&nbsp; J = NO</p>
        ","f","html-keyboard-response","367","2.1.0","476568","F=YES, J=NO","x1tj8t00v4","0","74","68","80","","","","","","","","","spread","butter1","literal","experimental","f","true","",""
"null","<p style=""font-size: 50px;"">+</p>","null","html-keyboard-response","368","2.1.0","476878","F=YES, J=NO","x1tj8t00v4","0","74","68","80","","","","","","","","","","","","","","","",""
"null","audio/beep-329314.mp3","null","audio-keyboard-response","369","2.1.0","478412","F=YES, J=NO","x1tj8t00v4","0","74","68","80","","","","","","","","","","","","","","","",""
"null","audio/test1.wav","null","audio-keyboard-response","370","2.1.0","479012","F=YES, J=NO","x1tj8t00v4","0","74","68","80","","","","","","","","","","","","","","","",""
"842","
          <p id=""word"" style=""font-size: 40px;"">twopch</p>
          <p style=""font-size: 16px;"">F = YES &nbsp;&nbsp;&nbsp; J = NO</p>
        ","j","html-keyboard-response","371","2.1.0","479856","F=YES, J=NO","x1tj8t00v4","0","74","68","80","","","","","","","","","twopch","test1","pseudoword","pseudoword","j","true","",""
"null","<p style=""font-size: 50px;"">+</p>","null","html-keyboard-response","372","2.1.0","480160","F=YES, J=NO","x1tj8t00v4","0","74","68","80","","","","","","","","","","","","","","","",""
"null","audio/beep-329314.mp3","null","audio-keyboard-response","373","2.1.0","481692","F=YES, J=NO","x1tj8t00v4","0","74","68","80","","","","","","","","","","","","","","","",""
"null","audio/trust.wav","null","audio-keyboard-response","374","2.1.0","482351","F=YES, J=NO","x1tj8t00v4","0","74","68","80","","","","","","","","","","","","","","","",""
"495","
          <p id=""word"" style=""font-size: 40px;"">build</p>
          <p style=""font-size: 16px;"">F = YES &nbsp;&nbsp;&nbsp; J = NO</p>
        ","f","html-keyboard-response","375","2.1.0","482847","F=YES, J=NO","x1tj8t00v4","0","74","68","80","","","","","","","","","build","trust","metaphor","experimental","f","true","",""
"null","<p style=""font-size: 50px;"">+</p>","null","html-keyboard-response","376","2.1.0","483159","F=YES, J=NO","x1tj8t00v4","0","74","68","80","","","","","","","","","","","","","","","",""
"null","audio/beep-329314.mp3","null","audio-keyboard-response","377","2.1.0","484692","F=YES, J=NO","x1tj8t00v4","0","74","68","80","","","","","","","","","","","","","","","",""
"null","audio/burden.wav","null","audio-keyboard-response","378","2.1.0","485192","F=YES, J=NO","x1tj8t00v4","0","74","68","80","","","","","","","","","","","","","","","",""
"467","
          <p id=""word"" style=""font-size: 40px;"">carry</p>
          <p style=""font-size: 16px;"">F = YES &nbsp;&nbsp;&nbsp; J = NO</p>
        ","f","html-keyboard-response","379","2.1.0","485661","F=YES, J=NO","x1tj8t00v4","0","74","68","80","","","","","","","","","carry","burden","metaphor","experimental","f","true","",""
"null","<p style=""font-size: 50px;"">+</p>","null","html-keyboard-response","380","2.1.0","485972","F=YES, J=NO","x1tj8t00v4","0","74","68","80","","","","","","","","","","","","","","","",""
"null","audio/beep-329314.mp3","null","audio-keyboard-response","381","2.1.0","487512","F=YES, J=NO","x1tj8t00v4","0","74","68","80","","","","","","","","","","","","","","","",""
"null","audio/size1.wav","null","audio-keyboard-response","382","2.1.0","488292","F=YES, J=NO","x1tj8t00v4","0","74","68","80","","","","","","","","","","","","","","","",""
"411","
          <p id=""word"" style=""font-size: 40px;"">clear</p>
          <p style=""font-size: 16px;"">F = YES &nbsp;&nbsp;&nbsp; J = NO</p>
        ","f","html-keyboard-response","383","2.1.0","488705","F=YES, J=NO","x1tj8t00v4","0","74","68","80","","","","","","","","","clear","size1","unrelated","experimental","f","true","",""
"null","<p style=""font-size: 50px;"">+</p>","null","html-keyboard-response","384","2.1.0","489010","F=YES, J=NO","x1tj8t00v4","0","74","68","80","","","","","","","","","","","","","","","",""
"null","audio/beep-329314.mp3","null","audio-keyboard-response","385","2.1.0","490551","F=YES, J=NO","x1tj8t00v4","0","74","68","80","","","","","","","","","","","","","","","",""
"null","audio/mile1.wav","null","audio-keyboard-response","386","2.1.0","491031","F=YES, J=NO","x1tj8t00v4","0","74","68","80","","","","","","","","","","","","","","","",""
"412","
          <p id=""word"" style=""font-size: 40px;"">writch</p>
          <p style=""font-size: 16px;"">F = YES &nbsp;&nbsp;&nbsp; J = NO</p>
        ","f","html-keyboard-response","387","2.1.0","491445","F=YES, J=NO","x1tj8t00v4","0","74","68","80","","","","","","","","","writch","mile1","pseudoword","pseudoword","j","false","",""
"null","<p style=""font-size: 50px;"">+</p>","null","html-keyboard-response","388","2.1.0","491759","F=YES, J=NO","x1tj8t00v4","0","74","68","80","","","","","","","","","","","","","","","",""
"null","audio/beep-329314.mp3","null","audio-keyboard-response","389","2.1.0","493291","F=YES, J=NO","x1tj8t00v4","0","74","68","80","","","","","","","","","","","","","","","",""
"null","audio/desire.wav","null","audio-keyboard-response","390","2.1.0","493892","F=YES, J=NO","x1tj8t00v4","0","74","68","80","","","","","","","","","","","","","","","",""
"417","
          <p id=""word"" style=""font-size: 40px;"">open</p>
          <p style=""font-size: 16px;"">F = YES &nbsp;&nbsp;&nbsp; J = NO</p>
