"rt","stimulus","response","trial_type","trial_index","plugin_version","time_elapsed","response_mapping","subject_id","list_index","lextale_score","lextale_word_score","lextale_nonword_score","success","timeout","failed_images","failed_audio","failed_video","task","isWord","isDummy","target","prime","prime_type","stimulus_type","correct_response","correct","section","question_order"
"4140","
    <div style=""max-width: 800px; margin: auto; text-align: left;"">
      <h2>STANFORD UNIVERSITY</h2>
      <h3>Research Information Sheet</h3>
      <p><strong>Protocol Director:</strong> Robert Hawkins<br>
      <strong>Protocol Title:</strong> Communication and social cognition in natural audiovisual contexts<br>
      <strong>IRB#:</strong> 77226</p>

      <p><strong>DESCRIPTION:</strong> You are invited to participate in a research study about language and communication. The purpose of the research is to understand how you interact and communicate with other people in naturalistic settings as a fluent English speaker. This research will be conducted through the Prolific platform, including participants from the US, UK, and Canada. If you decide to participate in this research, you will play a communication game in a group with one or more partners.</p>

      <p><strong>TIME INVOLVEMENT:</strong> The task will last the amount of time advertised on Prolific. You are free to withdraw from the study at any time.</p>

      <p><strong>RISKS AND BENEFITS:</strong> You may become frustrated if your partner gets distracted, or experience discomfort if other participants in your group send text that is inappropriate for the task. We ask you to please be respectful of other participants you might be interacting with to mitigate these risks. You may also experience discomfort when being asked to discuss or challenge emotionally salient political beliefs. Study data will be stored securely, in compliance with Stanford University standards, minimizing the risk of confidentiality breach. This study advances our scientific understanding of how people communicate and collaborate in naturalistic settings. This study may lead to further insights about what can go wrong in teamwork, suggest potential interventions to overcome these barriers, and help to develop assistive technologies that collaborate with human partners. We cannot and do not guarantee or promise that you will receive any benefits from this study.</p>

      <p><strong>PAYMENTS:</strong> You will receive payment in the amount advertised on Prolific. If you do not complete this study, you will receive prorated payment based on the time that you have spent. Additionally, you may be eligible for bonus payments as described in the instructions.</p>

      <p><strong>PARTICIPANT’S RIGHTS:</strong> If you have read this form and have decided to participate in this project, please understand your participation is voluntary and you have the right to withdraw your consent or discontinue participation at any time without penalty or loss of benefits to which you are otherwise entitled. The alternative is not to participate. You have the right to refuse to answer particular questions. The results of this research study may be presented at scientific or professional meetings or published in scientific journals. Your individual privacy will be maintained in all published and written data resulting from the study. In accordance with scientific norms, the data from this study may be used or shared with other researchers for future research (after removing personally identifying information) without additional consent from you.</p>

      <p><strong>CONTACT INFORMATION:</strong><br>
      Questions: If you have any questions, concerns or complaints about this research, its procedures, risks and benefits, contact the Protocol Director, Robert Hawkins (<a href=""mailto:rdhawkins@stanford.edu"">rdhawkins@stanford.edu</a>, 217-549-6923).<br>
      Independent Contact: If you are not satisfied with how this study is being conducted, or if you have any concerns, complaints, or general questions about the research or your rights as a participant, please contact the Stanford Institutional Review Board (IRB) to speak to someone independent of the research team at 650-723-2480 or toll free at 1-866-680-2906, or email at <a href=""mailto:irbnon-med@stanford.edu"">irbnon-med@stanford.edu</a>. You can also write to the Stanford IRB, Stanford University, 1705 El Camino Real, Palo Alto, CA 94306.</p>

      <p><strong>Please save or print a copy of this page for your records.</strong></p>
      <p>If you agree to participate in this research, click ""Continue"" below.</p>
    </div>
  ","0","html-button-response","0","2.1.0","4146","J=YES, F=NO","x75mrfqg6o","0","65","85","45","","","","","","","","","","","","","","","",""
"12421","
    <div style=""max-width: 800px; margin: auto; text-align: left;"">
      <h2>Welcome!</h2>
      <p>Thank you for participating in this study. The experiment consists of three parts:</p>
      <ol>
        <li>An English vocabulary test</li>
        <li>A main task in which you will hear and see words, and decide whether the written word is a real English word</li>
        <li>A brief survey about your background</li>
      </ol>
      <p>Each part will be introduced before it begins.</p>
      <p>Please make sure you are in a quiet environment and can hear audio clearly for the final task.</p>
      <p style=""margin-top: 2em;"">Press any key to begin.</p>
    </div>
  "," ","html-keyboard-response","1","2.1.0","16569","J=YES, F=NO","x75mrfqg6o","0","65","85","45","","","","","","","","","","","","","","","",""
"","","","preload","2","2.1.0","23148","J=YES, F=NO","x75mrfqg6o","0","65","85","45","true","false","[]","[]","[]","","","","","","","","","","",""
"7044","
    <div style=""max-width: 800px; margin: auto; text-align: left;"">
      <h2>Part 1: Vocabulary Test</h2>
      <p>You will now complete the first part of the study: a short English vocabulary test.</p>
      <p>This test is called <strong>LexTALE</strong> and helps us get a general sense of your English proficiency.</p>
      <p style=""margin-top: 2em;"">Press any key to continue.</p>
    </div>
  "," ","html-keyboard-response","3","2.1.0","30193","J=YES, F=NO","x75mrfqg6o","0","65","85","45","","","","","","","","","","","","","","","",""
"14449","
    <div style=""max-width: 800px; margin: auto; text-align: left;"">
      <h2>LexTALE Vocabulary Test</h2>
      <p>In this test, you will see a series of letter strings—one at a time.</p>
      <p>Your task is to decide whether each string is a real English word.</p>
      <p><strong>Key responses:</strong></p>
      <ul>
        <li><strong>J</strong> = YES (real English word)</li>
        <li><strong>F</strong> = NO (not a real English word)</li>
      </ul>
      <p>There is no time limit, but please try to be accurate.</p>
      <p style=""margin-top: 2em;"">Press any key to begin.</p>
    </div>
  "," ","html-keyboard-response","4","2.1.0","44644","J=YES, F=NO","x75mrfqg6o","0","65","85","45","","","","","","","","","","","","","","","",""
"2150","
  <p style=""font-size: 40px;"">platery</p>
  <p style=""font-size: 16px;"">J = YES &nbsp;&nbsp;&nbsp; F = NO</p>
","j","html-keyboard-response","5","2.1.0","46795","J=YES, F=NO","x75mrfqg6o","0","65","85","45","","","","","","lextale","false","true","","","","","","","",""
"1125","
  <p style=""font-size: 40px;"">denial</p>
  <p style=""font-size: 16px;"">J = YES &nbsp;&nbsp;&nbsp; F = NO</p>
","j","html-keyboard-response","6","2.1.0","47920","J=YES, F=NO","x75mrfqg6o","0","65","85","45","","","","","","lextale","true","true","","","","","","","",""
"3728","
  <p style=""font-size: 40px;"">marrit</p>
  <p style=""font-size: 16px;"">J = YES &nbsp;&nbsp;&nbsp; F = NO</p>
","f","html-keyboard-response","7","2.1.0","51649","J=YES, F=NO","x75mrfqg6o","0","65","85","45","","","","","","lextale","false","true","","","","","","","",""
"1090","
  <p style=""font-size: 40px;"">bottle</p>
  <p style=""font-size: 16px;"">J = YES &nbsp;&nbsp;&nbsp; F = NO</p>
","j","html-keyboard-response","8","2.1.0","52740","J=YES, F=NO","x75mrfqg6o","0","65","85","45","","","","","","lextale","true","false","","","","","","","",""
"3358","
  <p style=""font-size: 40px;"">birst</p>
  <p style=""font-size: 16px;"">J = YES &nbsp;&nbsp;&nbsp; F = NO</p>
","f","html-keyboard-response","9","2.1.0","56098","J=YES, F=NO","x75mrfqg6o","0","65","85","45","","","","","","lextale","false","false","","","","","","","",""
"1214","
  <p style=""font-size: 40px;"">envy</p>
  <p style=""font-size: 16px;"">J = YES &nbsp;&nbsp;&nbsp; F = NO</p>
","j","html-keyboard-response","10","2.1.0","57312","J=YES, F=NO","x75mrfqg6o","0","65","85","45","","","","","","lextale","true","false","","","","","","","",""
"2920","
  <p style=""font-size: 40px;"">brang</p>
  <p style=""font-size: 16px;"">J = YES &nbsp;&nbsp;&nbsp; F = NO</p>
","f","html-keyboard-response","11","2.1.0","60233","J=YES, F=NO","x75mrfqg6o","0","65","85","45","","","","","","lextale","false","false","","","","","","","",""
"1080","
  <p style=""font-size: 40px;"">huge</p>
  <p style=""font-size: 16px;"">J = YES &nbsp;&nbsp;&nbsp; F = NO</p>
","j","html-keyboard-response","12","2.1.0","61314","J=YES, F=NO","x75mrfqg6o","0","65","85","45","","","","","","lextale","true","false","","","","","","","",""
"3888","
  <p style=""font-size: 40px;"">plove</p>
  <p style=""font-size: 16px;"">J = YES &nbsp;&nbsp;&nbsp; F = NO</p>
","f","html-keyboard-response","13","2.1.0","65202","J=YES, F=NO","x75mrfqg6o","0","65","85","45","","","","","","lextale","false","false","","","","","","","",""
"718","
  <p style=""font-size: 40px;"">border</p>
  <p style=""font-size: 16px;"">J = YES &nbsp;&nbsp;&nbsp; F = NO</p>
","j","html-keyboard-response","14","2.1.0","65921","J=YES, F=NO","x75mrfqg6o","0","65","85","45","","","","","","lextale","true","false","","","","","","","",""
"2144","
  <p style=""font-size: 40px;"">flimsy</p>
  <p style=""font-size: 16px;"">J = YES &nbsp;&nbsp;&nbsp; F = NO</p>
","j","html-keyboard-response","15","2.1.0","68065","J=YES, F=NO","x75mrfqg6o","0","65","85","45","","","","","","lextale","true","false","","","","","","","",""
"1039","
  <p style=""font-size: 40px;"">drain</p>
  <p style=""font-size: 16px;"">J = YES &nbsp;&nbsp;&nbsp; F = NO</p>
","j","html-keyboard-response","16","2.1.0","69105","J=YES, F=NO","x75mrfqg6o","0","65","85","45","","","","","","lextale","true","false","","","","","","","",""
"2822","
  <p style=""font-size: 40px;"">twindle</p>
  <p style=""font-size: 16px;"">J = YES &nbsp;&nbsp;&nbsp; F = NO</p>
","j","html-keyboard-response","17","2.1.0","71928","J=YES, F=NO","x75mrfqg6o","0","65","85","45","","","","","","lextale","false","false","","","","","","","",""
"1112","
  <p style=""font-size: 40px;"">propose</p>
  <p style=""font-size: 16px;"">J = YES &nbsp;&nbsp;&nbsp; F = NO</p>
","j","html-keyboard-response","18","2.1.0","73041","J=YES, F=NO","x75mrfqg6o","0","65","85","45","","","","","","lextale","true","false","","","","","","","",""
"1591","
  <p style=""font-size: 40px;"">forlay</p>
  <p style=""font-size: 16px;"">J = YES &nbsp;&nbsp;&nbsp; F = NO</p>
","j","html-keyboard-response","19","2.1.0","74632","J=YES, F=NO","x75mrfqg6o","0","65","85","45","","","","","","lextale","false","false","","","","","","","",""
"1186","
  <p style=""font-size: 40px;"">tenant</p>
  <p style=""font-size: 16px;"">J = YES &nbsp;&nbsp;&nbsp; F = NO</p>
","j","html-keyboard-response","20","2.1.0","75819","J=YES, F=NO","x75mrfqg6o","0","65","85","45","","","","","","lextale","true","false","","","","","","","",""
"926","
  <p style=""font-size: 40px;"">strain</p>
  <p style=""font-size: 16px;"">J = YES &nbsp;&nbsp;&nbsp; F = NO</p>
","j","html-keyboard-response","21","2.1.0","76746","J=YES, F=NO","x75mrfqg6o","0","65","85","45","","","","","","lextale","true","false","","","","","","","",""
"1743","
  <p style=""font-size: 40px;"">holster</p>
  <p style=""font-size: 16px;"">J = YES &nbsp;&nbsp;&nbsp; F = NO</p>
","j","html-keyboard-response","22","2.1.0","78490","J=YES, F=NO","x75mrfqg6o","0","65","85","45","","","","","","lextale","true","false","","","","","","","",""
"1654","
  <p style=""font-size: 40px;"">hinder</p>
  <p style=""font-size: 16px;"">J = YES &nbsp;&nbsp;&nbsp; F = NO</p>
","j","html-keyboard-response","23","2.1.0","80145","J=YES, F=NO","x75mrfqg6o","0","65","85","45","","","","","","lextale","true","false","","","","","","","",""
"1519","
  <p style=""font-size: 40px;"">swindle</p>
  <p style=""font-size: 16px;"">J = YES &nbsp;&nbsp;&nbsp; F = NO</p>
","j","html-keyboard-response","24","2.1.0","81665","J=YES, F=NO","x75mrfqg6o","0","65","85","45","","","","","","lextale","true","false","","","","","","","",""
"1953","
  <p style=""font-size: 40px;"">nuder</p>
  <p style=""font-size: 16px;"">J = YES &nbsp;&nbsp;&nbsp; F = NO</p>
","j","html-keyboard-response","25","2.1.0","83618","J=YES, F=NO","x75mrfqg6o","0","65","85","45","","","","","","lextale","false","false","","","","","","","",""
"672","
  <p style=""font-size: 40px;"">pillow</p>
  <p style=""font-size: 16px;"">J = YES &nbsp;&nbsp;&nbsp; F = NO</p>
","j","html-keyboard-response","26","2.1.0","84291","J=YES, F=NO","x75mrfqg6o","0","65","85","45","","","","","","lextale","true","false","","","","","","","",""
"3541","
  <p style=""font-size: 40px;"">shumble</p>
  <p style=""font-size: 16px;"">J = YES &nbsp;&nbsp;&nbsp; F = NO</p>
","j","html-keyboard-response","27","2.1.0","87833","J=YES, F=NO","x75mrfqg6o","0","65","85","45","","","","","","lextale","false","false","","","","","","","",""
"735","
  <p style=""font-size: 40px;"">thirst</p>
  <p style=""font-size: 16px;"">J = YES &nbsp;&nbsp;&nbsp; F = NO</p>
","j","html-keyboard-response","28","2.1.0","88569","J=YES, F=NO","x75mrfqg6o","0","65","85","45","","","","","","lextale","true","false","","","","","","","",""
"5776","
  <p style=""font-size: 40px;"">unsail</p>
  <p style=""font-size: 16px;"">J = YES &nbsp;&nbsp;&nbsp; F = NO</p>
","f","html-keyboard-response","29","2.1.0","94345","J=YES, F=NO","x75mrfqg6o","0","65","85","45","","","","","","lextale","false","false","","","","","","","",""
"1135","
  <p style=""font-size: 40px;"">rifle</p>
  <p style=""font-size: 16px;"">J = YES &nbsp;&nbsp;&nbsp; F = NO</p>
","j","html-keyboard-response","30","2.1.0","95481","J=YES, F=NO","x75mrfqg6o","0","65","85","45","","","","","","lextale","true","false","","","","","","","",""
"928","
  <p style=""font-size: 40px;"">mush</p>
  <p style=""font-size: 16px;"">J = YES &nbsp;&nbsp;&nbsp; F = NO</p>
","j","html-keyboard-response","31","2.1.0","96410","J=YES, F=NO","x75mrfqg6o","0","65","85","45","","","","","","lextale","false","false","","","","","","","",""
"2351","
  <p style=""font-size: 40px;"">drench</p>
  <p style=""font-size: 16px;"">J = YES &nbsp;&nbsp;&nbsp; F = NO</p>
","j","html-keyboard-response","32","2.1.0","98761","J=YES, F=NO","x75mrfqg6o","0","65","85","45","","","","","","lextale","true","false","","","","","","","",""
"13992","
  <p style=""font-size: 40px;"">snirt</p>
  <p style=""font-size: 16px;"">J = YES &nbsp;&nbsp;&nbsp; F = NO</p>
","f","html-keyboard-response","33","2.1.0","112754","J=YES, F=NO","x75mrfqg6o","0","65","85","45","","","","","","lextale","false","false","","","","","","","",""
"1590","
  <p style=""font-size: 40px;"">bitter</p>
  <p style=""font-size: 16px;"">J = YES &nbsp;&nbsp;&nbsp; F = NO</p>
","j","html-keyboard-response","34","2.1.0","114344","J=YES, F=NO","x75mrfqg6o","0","65","85","45","","","","","","lextale","true","false","","","","","","","",""
"3568","
  <p style=""font-size: 40px;"">pliff</p>
  <p style=""font-size: 16px;"">J = YES &nbsp;&nbsp;&nbsp; F = NO</p>
","f","html-keyboard-response","35","2.1.0","117913","J=YES, F=NO","x75mrfqg6o","0","65","85","45","","","","","","lextale","false","false","","","","","","","",""
"1483","
  <p style=""font-size: 40px;"">tablet</p>
  <p style=""font-size: 16px;"">J = YES &nbsp;&nbsp;&nbsp; F = NO</p>
","j","html-keyboard-response","36","2.1.0","119396","J=YES, F=NO","x75mrfqg6o","0","65","85","45","","","","","","lextale","true","false","","","","","","","",""
"1734","
  <p style=""font-size: 40px;"">glimmer</p>
  <p style=""font-size: 16px;"">J = YES &nbsp;&nbsp;&nbsp; F = NO</p>
","j","html-keyboard-response","37","2.1.0","121130","J=YES, F=NO","x75mrfqg6o","0","65","85","45","","","","","","lextale","true","false","","","","","","","",""
"3072","
  <p style=""font-size: 40px;"">slink</p>
  <p style=""font-size: 16px;"">J = YES &nbsp;&nbsp;&nbsp; F = NO</p>
","j","html-keyboard-response","38","2.1.0","124202","J=YES, F=NO","x75mrfqg6o","0","65","85","45","","","","","","lextale","true","false","","","","","","","",""
"1037","
  <p style=""font-size: 40px;"">clever</p>
  <p style=""font-size: 16px;"">J = YES &nbsp;&nbsp;&nbsp; F = NO</p>
","j","html-keyboard-response","39","2.1.0","125240","J=YES, F=NO","x75mrfqg6o","0","65","85","45","","","","","","lextale","true","false","","","","","","","",""
"16399","
  <p style=""font-size: 40px;"">grum</p>
  <p style=""font-size: 16px;"">J = YES &nbsp;&nbsp;&nbsp; F = NO</p>
","j","html-keyboard-response","40","2.1.0","141640","J=YES, F=NO","x75mrfqg6o","0","65","85","45","","","","","","lextale","false","false","","","","","","","",""
"762","
  <p style=""font-size: 40px;"">string</p>
  <p style=""font-size: 16px;"">J = YES &nbsp;&nbsp;&nbsp; F = NO</p>
","j","html-keyboard-response","41","2.1.0","142402","J=YES, F=NO","x75mrfqg6o","0","65","85","45","","","","","","lextale","true","false","","","","","","","",""
"2630","
  <p style=""font-size: 40px;"">plim</p>
  <p style=""font-size: 16px;"">J = YES &nbsp;&nbsp;&nbsp; F = NO</p>
","f","html-keyboard-response","42","2.1.0","145033","J=YES, F=NO","x75mrfqg6o","0","65","85","45","","","","","","lextale","false","false","","","","","","","",""
"799","
  <p style=""font-size: 40px;"">cable</p>
  <p style=""font-size: 16px;"">J = YES &nbsp;&nbsp;&nbsp; F = NO</p>
","j","html-keyboard-response","43","2.1.0","145832","J=YES, F=NO","x75mrfqg6o","0","65","85","45","","","","","","lextale","true","false","","","","","","","",""
"12568","
  <p style=""font-size: 40px;"">shrivel</p>
  <p style=""font-size: 16px;"">J = YES &nbsp;&nbsp;&nbsp; F = NO</p>
","j","html-keyboard-response","44","2.1.0","158400","J=YES, F=NO","x75mrfqg6o","0","65","85","45","","","","","","lextale","true","false","","","","","","","",""
"1112","
  <p style=""font-size: 40px;"">tarnish</p>
  <p style=""font-size: 16px;"">J = YES &nbsp;&nbsp;&nbsp; F = NO</p>
","j","html-keyboard-response","45","2.1.0","159513","J=YES, F=NO","x75mrfqg6o","0","65","85","45","","","","","","lextale","true","false","","","","","","","",""
"2431","
  <p style=""font-size: 40px;"">blim</p>
  <p style=""font-size: 16px;"">J = YES &nbsp;&nbsp;&nbsp; F = NO</p>
","f","html-keyboard-response","46","2.1.0","161945","J=YES, F=NO","x75mrfqg6o","0","65","85","45","","","","","","lextale","false","false","","","","","","","",""
"1319","
  <p style=""font-size: 40px;"">stifle</p>
  <p style=""font-size: 16px;"">J = YES &nbsp;&nbsp;&nbsp; F = NO</p>
","j","html-keyboard-response","47","2.1.0","163265","J=YES, F=NO","x75mrfqg6o","0","65","85","45","","","","","","lextale","true","false","","","","","","","",""
"10487","
  <p style=""font-size: 40px;"">bint</p>
  <p style=""font-size: 16px;"">J = YES &nbsp;&nbsp;&nbsp; F = NO</p>
","j","html-keyboard-response","48","2.1.0","173753","J=YES, F=NO","x75mrfqg6o","0","65","85","45","","","","","","lextale","false","false","","","","","","","",""
"1031","
  <p style=""font-size: 40px;"">purple</p>
  <p style=""font-size: 16px;"">J = YES &nbsp;&nbsp;&nbsp; F = NO</p>
","j","html-keyboard-response","49","2.1.0","174785","J=YES, F=NO","x75mrfqg6o","0","65","85","45","","","","","","lextale","true","false","","","","","","","",""
"3784","
  <p style=""font-size: 40px;"">wriggle</p>
  <p style=""font-size: 16px;"">J = YES &nbsp;&nbsp;&nbsp; F = NO</p>
","j","html-keyboard-response","50","2.1.0","178569","J=YES, F=NO","x75mrfqg6o","0","65","85","45","","","","","","lextale","true","false","","","","","","","",""
"2590","
  <p style=""font-size: 40px;"">mangle</p>
  <p style=""font-size: 16px;"">J = YES &nbsp;&nbsp;&nbsp; F = NO</p>
","j","html-keyboard-response","51","2.1.0","181160","J=YES, F=NO","x75mrfqg6o","0","65","85","45","","","","","","lextale","true","false","","","","","","","",""
"16298","
  <p style=""font-size: 40px;"">shramp</p>
  <p style=""font-size: 16px;"">J = YES &nbsp;&nbsp;&nbsp; F = NO</p>
","f","html-keyboard-response","52","2.1.0","197459","J=YES, F=NO","x75mrfqg6o","0","65","85","45","","","","","","lextale","false","false","","","","","","","",""
"1446","
  <p style=""font-size: 40px;"">flirt</p>
  <p style=""font-size: 16px;"">J = YES &nbsp;&nbsp;&nbsp; F = NO</p>
","j","html-keyboard-response","53","2.1.0","198906","J=YES, F=NO","x75mrfqg6o","0","65","85","45","","","","","","lextale","true","false","","","","","","","",""
"1526","
  <p style=""font-size: 40px;"">frip</p>
  <p style=""font-size: 16px;"">J = YES &nbsp;&nbsp;&nbsp; F = NO</p>
","j","html-keyboard-response","54","2.1.0","200432","J=YES, F=NO","x75mrfqg6o","0","65","85","45","","","","","","lextale","false","false","","","","","","","",""
"784","
  <p style=""font-size: 40px;"">tangle</p>
  <p style=""font-size: 16px;"">J = YES &nbsp;&nbsp;&nbsp; F = NO</p>
","j","html-keyboard-response","55","2.1.0","201217","J=YES, F=NO","x75mrfqg6o","0","65","85","45","","","","","","lextale","true","false","","","","","","","",""
"776","
  <p style=""font-size: 40px;"">crumble</p>
  <p style=""font-size: 16px;"">J = YES &nbsp;&nbsp;&nbsp; F = NO</p>
","j","html-keyboard-response","56","2.1.0","201993","J=YES, F=NO","x75mrfqg6o","0","65","85","45","","","","","","lextale","true","false","","","","","","","",""
"719","
  <p style=""font-size: 40px;"">wrinkle</p>
  <p style=""font-size: 16px;"">J = YES &nbsp;&nbsp;&nbsp; F = NO</p>
","j","html-keyboard-response","57","2.1.0","202713","J=YES, F=NO","x75mrfqg6o","0","65","85","45","","","","","","lextale","true","false","","","","","","","",""
"3097","
  <p style=""font-size: 40px;"">slumb</p>
  <p style=""font-size: 16px;"">J = YES &nbsp;&nbsp;&nbsp; F = NO</p>
","j","html-keyboard-response","58","2.1.0","205810","J=YES, F=NO","x75mrfqg6o","0","65","85","45","","","","","","lextale","false","false","","","","","","","",""
"1910","
  <p style=""font-size: 40px;"">jungle</p>
  <p style=""font-size: 16px;"">J = YES &nbsp;&nbsp;&nbsp; F = NO</p>
","j","html-keyboard-response","59","2.1.0","207721","J=YES, F=NO","x75mrfqg6o","0","65","85","45","","","","","","lextale","true","false","","","","","","","",""
"1160","
  <p style=""font-size: 40px;"">frolick</p>
  <p style=""font-size: 16px;"">J = YES &nbsp;&nbsp;&nbsp; F = NO</p>
","j","html-keyboard-response","60","2.1.0","208882","J=YES, F=NO","x75mrfqg6o","0","65","85","45","","","","","","lextale","false","false","","","","","","","",""
"4893","
      <h2>LexTALE Test Completed</h2>
      <p>Your LexTALE vocabulary score is: <strong>65%</strong></p>
      <p>Press any key to continue.</p>
    "," ","html-keyboard-response","61","2.1.0","213777","J=YES, F=NO","x75mrfqg6o","0","65","85","45","","","","","","","","","","","","","","","",""
"3976","
    <div style=""max-width: 800px; margin: auto; text-align: left;"">
      <h2>Break Time</h2>
      <p>You have completed the first part of the study.</p>
      <p>You may take a short <strong>30-second break</strong> before continuing.</p>
      <p>When you’re ready, press any key to continue to the final task.</p>
    </div>
  "," ","html-keyboard-response","62","2.1.0","217753","J=YES, F=NO","x75mrfqg6o","0","65","85","45","","","","","","","","","","","","","","","",""
"18511","
    <div style=""max-width: 800px; margin: auto; text-align: left;"">
      <h2>Part 2: Lexical Decision Task</h2>
      <p>You will now begin the second part of the study.</p>
      <p>Each trial will follow this sequence:</p>
      <ul>
        <li>A fixation cross (+) appears at the center of the screen.</li>
        <li>You will hear a short beep followed by a spoken word.</li>
        <li>A written word will appear briefly on the screen.</li>
      </ul>
      <p>Your task is to judge whether the <strong>written word</strong> is a real English word.</p>
      <p style=""margin-top: 1em;""><strong>Key responses:</strong></p>
      <ul>
        <li><strong>J</strong> = YES (real English word)</li>
        <li><strong>F</strong> = NO (not a real English word)</li>
      </ul>
      <p>Please respond as quickly and accurately as you can.</p>
      <p style=""margin-top: 2em;"">Press any key to continue.</p>
    </div>
  "," ","html-keyboard-response","63","2.1.0","236265","J=YES, F=NO","x75mrfqg6o","0","65","85","45","","","","","","","","","","","","","","","",""
"2017","
    <div style=""max-width: 800px; margin: auto; text-align: left;"">
      <h2>Before You Begin</h2>
      <p>Make sure your sound is turned on.</p>
      <p>You will hear audio during each trial, but your decision should be based only on the <strong>written word</strong> you see on the screen.</p>
      <p><strong>Reminder:</strong></p>
      <ul>
        <li><strong>J</strong> = YES (real English word)</li>
        <li><strong>F</strong> = NO (not a real English word)</li>
      </ul>
      <p style=""margin-top: 2em;"">Press any key when you are ready to begin.</p>
    </div>
  "," ","html-keyboard-response","64","2.1.0","238282","J=YES, F=NO","x75mrfqg6o","0","65","85","45","","","","","","","","","","","","","","","",""
"3142","
    <div style=""max-width: 800px; margin: auto; text-align: left;"">
      <h2>Part 2: Practice Trials</h2>
      <p>You will now complete a few <strong>practice trials</strong> to get familiar with the task.</p>
      <p>These trials are <strong>not scored</strong> and are only to help you get used to the format.</p>
      <p style=""margin-top: 2em;"">Press any key to begin.</p>
    </div>
  "," ","html-keyboard-response","65","2.1.0","241425","J=YES, F=NO","x75mrfqg6o","0","65","85","45","","","","","","","","","","","","","","","",""
"2403","<p>Starting practice block 1 of 2. Press any key to continue.</p>"," ","html-keyboard-response","66","2.1.0","243828","J=YES, F=NO","x75mrfqg6o","0","65","85","45","","","","","","","","","","","","","","","",""
"null","<p style=""font-size: 50px;"">+</p>","null","html-keyboard-response","67","2.1.0","244141","J=YES, F=NO","x75mrfqg6o","0","65","85","45","","","","","","","","","","","","","","","",""
"null","audio/beep-329314.mp3","null","audio-keyboard-response","68","2.1.0","245967","J=YES, F=NO","x75mrfqg6o","0","65","85","45","","","","","","","","","","","","","","","",""
"null","audio/camera1.wav","null","audio-keyboard-response","69","2.1.0","247036","J=YES, F=NO","x75mrfqg6o","0","65","85","45","","","","","","","","","","","","","","","",""
"772","
          <p id=""word"" style=""font-size: 40px;"">stir</p>
          <p style=""font-size: 16px;"">J = YES &nbsp;&nbsp;&nbsp; F = NO</p>
        ","j","html-keyboard-response","70","2.1.0","247809","J=YES, F=NO","x75mrfqg6o","0","65","85","45","","","","","","","","","stir","camera1","filler","filler","j","true","",""
"null","<p style=""font-size: 50px;"">+</p>","null","html-keyboard-response","71","2.1.0","248111","J=YES, F=NO","x75mrfqg6o","0","65","85","45","","","","","","","","","","","","","","","",""
"null","audio/beep-329314.mp3","null","audio-keyboard-response","72","2.1.0","249645","J=YES, F=NO","x75mrfqg6o","0","65","85","45","","","","","","","","","","","","","","","",""
"null","audio/gossip1.wav","null","audio-keyboard-response","73","2.1.0","250316","J=YES, F=NO","x75mrfqg6o","0","65","85","45","","","","","","","","","","","","","","","",""
"null","
          <p id=""word"" style=""font-size: 40px;"">camerish</p>
          <p style=""font-size: 16px;"">J = YES &nbsp;&nbsp;&nbsp; F = NO</p>
        ","null","html-keyboard-response","74","2.1.0","251820","J=YES, F=NO","x75mrfqg6o","0","65","85","45","","","","","","","","","camerish","gossip1","pseudoword","pseudoword","f","false","",""
"null","<p style=""font-size: 50px;"">+</p>","null","html-keyboard-response","75","2.1.0","252129","J=YES, F=NO","x75mrfqg6o","0","65","85","45","","","","","","","","","","","","","","","",""
"null","audio/beep-329314.mp3","null","audio-keyboard-response","76","2.1.0","253666","J=YES, F=NO","x75mrfqg6o","0","65","85","45","","","","","","","","","","","","","","","",""
"null","audio/bridge.wav","null","audio-keyboard-response","77","2.1.0","254535","J=YES, F=NO","x75mrfqg6o","0","65","85","45","","","","","","","","","","","","","","","",""
"900","
          <p id=""word"" style=""font-size: 40px;"">crack</p>
          <p style=""font-size: 16px;"">J = YES &nbsp;&nbsp;&nbsp; F = NO</p>
        ","j","html-keyboard-response","78","2.1.0","255436","J=YES, F=NO","x75mrfqg6o","0","65","85","45","","","","","","","","","crack","bridge","filler","filler","j","true","",""
"null","<p style=""font-size: 50px;"">+</p>","null","html-keyboard-response","79","2.1.0","255740","J=YES, F=NO","x75mrfqg6o","0","65","85","45","","","","","","","","","","","","","","","",""
"null","audio/beep-329314.mp3","null","audio-keyboard-response","80","2.1.0","257266","J=YES, F=NO","x75mrfqg6o","0","65","85","45","","","","","","","","","","","","","","","",""
"null","audio/bomb1.wav","null","audio-keyboard-response","81","2.1.0","257956","J=YES, F=NO","x75mrfqg6o","0","65","85","45","","","","","","","","","","","","","","","",""
"772","
          <p id=""word"" style=""font-size: 40px;"">clean</p>
          <p style=""font-size: 16px;"">J = YES &nbsp;&nbsp;&nbsp; F = NO</p>
        ","j","html-keyboard-response","82","2.1.0","258728","J=YES, F=NO","x75mrfqg6o","0","65","85","45","","","","","","","","","clean","bomb1","filler","filler","j","true","",""
"null","<p style=""font-size: 50px;"">+</p>","null","html-keyboard-response","83","2.1.0","259031","J=YES, F=NO","x75mrfqg6o","0","65","85","45","","","","","","","","","","","","","","","",""
"null","audio/beep-329314.mp3","null","audio-keyboard-response","84","2.1.0","260565","J=YES, F=NO","x75mrfqg6o","0","65","85","45","","","","","","","","","","","","","","","",""
"null","audio/battle1.wav","null","audio-keyboard-response","85","2.1.0","261076","J=YES, F=NO","x75mrfqg6o","0","65","85","45","","","","","","","","","","","","","","","",""
"989","
          <p id=""word"" style=""font-size: 40px;"">boil</p>
          <p style=""font-size: 16px;"">J = YES &nbsp;&nbsp;&nbsp; F = NO</p>
        ","j","html-keyboard-response","86","2.1.0","262066","J=YES, F=NO","x75mrfqg6o","0","65","85","45","","","","","","","","","boil","battle1","filler","filler","j","true","",""
"null","<p style=""font-size: 50px;"">+</p>","null","html-keyboard-response","87","2.1.0","262377","J=YES, F=NO","x75mrfqg6o","0","65","85","45","","","","","","","","","","","","","","","",""
"null","audio/beep-329314.mp3","null","audio-keyboard-response","88","2.1.0","263906","J=YES, F=NO","x75mrfqg6o","0","65","85","45","","","","","","","","","","","","","","","",""
"null","audio/window1.wav","null","audio-keyboard-response","89","2.1.0","264835","J=YES, F=NO","x75mrfqg6o","0","65","85","45","","","","","","","","","","","","","","","",""
"894","
          <p id=""word"" style=""font-size: 40px;"">toss</p>
          <p style=""font-size: 16px;"">J = YES &nbsp;&nbsp;&nbsp; F = NO</p>
        ","j","html-keyboard-response","90","2.1.0","265730","J=YES, F=NO","x75mrfqg6o","0","65","85","45","","","","","","","","","toss","window1","filler","filler","j","true","",""
"null","<p style=""font-size: 50px;"">+</p>","null","html-keyboard-response","91","2.1.0","266036","J=YES, F=NO","x75mrfqg6o","0","65","85","45","","","","","","","","","","","","","","","",""
"null","audio/beep-329314.mp3","null","audio-keyboard-response","92","2.1.0","267566","J=YES, F=NO","x75mrfqg6o","0","65","85","45","","","","","","","","","","","","","","","",""
"null","audio/breath.wav","null","audio-keyboard-response","93","2.1.0","268175","J=YES, F=NO","x75mrfqg6o","0","65","85","45","","","","","","","","","","","","","","","",""
"610","
          <p id=""word"" style=""font-size: 40px;"">pack</p>
          <p style=""font-size: 16px;"">J = YES &nbsp;&nbsp;&nbsp; F = NO</p>
        ","j","html-keyboard-response","94","2.1.0","268786","J=YES, F=NO","x75mrfqg6o","0","65","85","45","","","","","","","","","pack","breath","filler","filler","j","true","",""
"null","<p style=""font-size: 50px;"">+</p>","null","html-keyboard-response","95","2.1.0","269100","J=YES, F=NO","x75mrfqg6o","0","65","85","45","","","","","","","","","","","","","","","",""
"null","audio/beep-329314.mp3","null","audio-keyboard-response","96","2.1.0","270625","J=YES, F=NO","x75mrfqg6o","0","65","85","45","","","","","","","","","","","","","","","",""
"null","audio/smirk1.wav","null","audio-keyboard-response","97","2.1.0","271696","J=YES, F=NO","x75mrfqg6o","0","65","85","45","","","","","","","","","","","","","","","",""
"808","
          <p id=""word"" style=""font-size: 40px;"">snopt</p>
          <p style=""font-size: 16px;"">J = YES &nbsp;&nbsp;&nbsp; F = NO</p>
        ","f","html-keyboard-response","98","2.1.0","272505","J=YES, F=NO","x75mrfqg6o","0","65","85","45","","","","","","","","","snopt","smirk1","pseudoword","pseudoword","f","true","",""
"null","<p style=""font-size: 50px;"">+</p>","null","html-keyboard-response","99","2.1.0","272813","J=YES, F=NO","x75mrfqg6o","0","65","85","45","","","","","","","","","","","","","","","",""
"null","audio/beep-329314.mp3","null","audio-keyboard-response","100","2.1.0","274345","J=YES, F=NO","x75mrfqg6o","0","65","85","45","","","","","","","","","","","","","","","",""
"null","audio/meal.wav","null","audio-keyboard-response","101","2.1.0","274836","J=YES, F=NO","x75mrfqg6o","0","65","85","45","","","","","","","","","","","","","","","",""
"1357","
          <p id=""word"" style=""font-size: 40px;"">gallite</p>
          <p style=""font-size: 16px;"">J = YES &nbsp;&nbsp;&nbsp; F = NO</p>
        ","f","html-keyboard-response","102","2.1.0","276193","J=YES, F=NO","x75mrfqg6o","0","65","85","45","","","","","","","","","gallite","meal","pseudoword","pseudoword","f","true","",""
"null","<p style=""font-size: 50px;"">+</p>","null","html-keyboard-response","103","2.1.0","276495","J=YES, F=NO","x75mrfqg6o","0","65","85","45","","","","","","","","","","","","","","","",""
"null","audio/beep-329314.mp3","null","audio-keyboard-response","104","2.1.0","278026","J=YES, F=NO","x75mrfqg6o","0","65","85","45","","","","","","","","","","","","","","","",""
"null","audio/bottle.wav","null","audio-keyboard-response","105","2.1.0","278795","J=YES, F=NO","x75mrfqg6o","0","65","85","45","","","","","","","","","","","","","","","",""
"693","
          <p id=""word"" style=""font-size: 40px;"">watch</p>
          <p style=""font-size: 16px;"">J = YES &nbsp;&nbsp;&nbsp; F = NO</p>
        ","j","html-keyboard-response","106","2.1.0","279489","J=YES, F=NO","x75mrfqg6o","0","65","85","45","","","","","","","","","watch","bottle","filler","filler","j","true","",""
"null","<p style=""font-size: 50px;"">+</p>","null","html-keyboard-response","107","2.1.0","279800","J=YES, F=NO","x75mrfqg6o","0","65","85","45","","","","","","","","","","","","","","","",""
"null","audio/beep-329314.mp3","null","audio-keyboard-response","108","2.1.0","281326","J=YES, F=NO","x75mrfqg6o","0","65","85","45","","","","","","","","","","","","","","","",""
"null","audio/age1.wav","null","audio-keyboard-response","109","2.1.0","281916","J=YES, F=NO","x75mrfqg6o","0","65","85","45","","","","","","","","","","","","","","","",""
"836","
          <p id=""word"" style=""font-size: 40px;"">lachry</p>
          <p style=""font-size: 16px;"">J = YES &nbsp;&nbsp;&nbsp; F = NO</p>
        ","f","html-keyboard-response","110","2.1.0","282753","J=YES, F=NO","x75mrfqg6o","0","65","85","45","","","","","","","","","lachry","age1","pseudoword","pseudoword","f","true","",""
"null","<p style=""font-size: 50px;"">+</p>","null","html-keyboard-response","111","2.1.0","283066","J=YES, F=NO","x75mrfqg6o","0","65","85","45","","","","","","","","","","","","","","","",""
"null","audio/beep-329314.mp3","null","audio-keyboard-response","112","2.1.0","284605","J=YES, F=NO","x75mrfqg6o","0","65","85","45","","","","","","","","","","","","","","","",""
"null","audio/trust.wav","null","audio-keyboard-response","113","2.1.0","285575","J=YES, F=NO","x75mrfqg6o","0","65","85","45","","","","","","","","","","","","","","","",""
"819","
          <p id=""word"" style=""font-size: 40px;"">swint</p>
          <p style=""font-size: 16px;"">J = YES &nbsp;&nbsp;&nbsp; F = NO</p>
        ","j","html-keyboard-response","114","2.1.0","286395","J=YES, F=NO","x75mrfqg6o","0","65","85","45","","","","","","","","","swint","trust","pseudoword","pseudoword","f","false","",""
"1540","<p>Starting practice block 2 of 2. Press any key to continue.</p>"," ","html-keyboard-response","115","2.1.0","287936","J=YES, F=NO","x75mrfqg6o","0","65","85","45","","","","","","","","","","","","","","","",""
"null","<p style=""font-size: 50px;"">+</p>","null","html-keyboard-response","116","2.1.0","288242","J=YES, F=NO","x75mrfqg6o","0","65","85","45","","","","","","","","","","","","","","","",""
"null","audio/beep-329314.mp3","null","audio-keyboard-response","117","2.1.0","289766","J=YES, F=NO","x75mrfqg6o","0","65","85","45","","","","","","","","","","","","","","","",""
"null","audio/terrain.wav","null","audio-keyboard-response","118","2.1.0","290675","J=YES, F=NO","x75mrfqg6o","0","65","85","45","","","","","","","","","","","","","","","",""
"820","
          <p id=""word"" style=""font-size: 40px;"">twist</p>
          <p style=""font-size: 16px;"">J = YES &nbsp;&nbsp;&nbsp; F = NO</p>
        ","j","html-keyboard-response","119","2.1.0","291496","J=YES, F=NO","x75mrfqg6o","0","65","85","45","","","","","","","","","twist","terrain","filler","filler","j","true","",""
"null","<p style=""font-size: 50px;"">+</p>","null","html-keyboard-response","120","2.1.0","291801","J=YES, F=NO","x75mrfqg6o","0","65","85","45","","","","","","","","","","","","","","","",""
"null","audio/beep-329314.mp3","null","audio-keyboard-response","121","2.1.0","293326","J=YES, F=NO","x75mrfqg6o","0","65","85","45","","","","","","","","","","","","","","","",""
"null","audio/golf1.wav","null","audio-keyboard-response","122","2.1.0","294196","J=YES, F=NO","x75mrfqg6o","0","65","85","45","","","","","","","","","","","","","","","",""
"1181","
          <p id=""word"" style=""font-size: 40px;"">drabble</p>
          <p style=""font-size: 16px;"">J = YES &nbsp;&nbsp;&nbsp; F = NO</p>
        ","j","html-keyboard-response","123","2.1.0","295377","J=YES, F=NO","x75mrfqg6o","0","65","85","45","","","","","","","","","drabble","golf1","pseudoword","pseudoword","f","false","",""
"null","<p style=""font-size: 50px;"">+</p>","null","html-keyboard-response","124","2.1.0","295683","J=YES, F=NO","x75mrfqg6o","0","65","85","45","","","","","","","","","","","","","","","",""
"null","audio/beep-329314.mp3","null","audio-keyboard-response","125","2.1.0","297206","J=YES, F=NO","x75mrfqg6o","0","65","85","45","","","","","","","","","","","","","","","",""
"null","audio/vehicle1.wav","null","audio-keyboard-response","126","2.1.0","297896","J=YES, F=NO","x75mrfqg6o","0","65","85","45","","","","","","","","","","","","","","","",""
"746","
          <p id=""word"" style=""font-size: 40px;"">dropt</p>
          <p style=""font-size: 16px;"">J = YES &nbsp;&nbsp;&nbsp; F = NO</p>
        ","f","html-keyboard-response","127","2.1.0","298642","J=YES, F=NO","x75mrfqg6o","0","65","85","45","","","","","","","","","dropt","vehicle1","pseudoword","pseudoword","f","true","",""
"null","<p style=""font-size: 50px;"">+</p>","null","html-keyboard-response","128","2.1.0","298945","J=YES, F=NO","x75mrfqg6o","0","65","85","45","","","","","","","","","","","","","","","",""
"null","audio/beep-329314.mp3","null","audio-keyboard-response","129","2.1.0","300486","J=YES, F=NO","x75mrfqg6o","0","65","85","45","","","","","","","","","","","","","","","",""
"null","audio/truth1.wav","null","audio-keyboard-response","130","2.1.0","301376","J=YES, F=NO","x75mrfqg6o","0","65","85","45","","","","","","","","","","","","","","","",""
"912","
          <p id=""word"" style=""font-size: 40px;"">calitom</p>
          <p style=""font-size: 16px;"">J = YES &nbsp;&nbsp;&nbsp; F = NO</p>
        ","f","html-keyboard-response","131","2.1.0","302288","J=YES, F=NO","x75mrfqg6o","0","65","85","45","","","","","","","","","calitom","truth1","pseudoword","pseudoword","f","true","",""
"null","<p style=""font-size: 50px;"">+</p>","null","html-keyboard-response","132","2.1.0","302601","J=YES, F=NO","x75mrfqg6o","0","65","85","45","","","","","","","","","","","","","","","",""
"null","audio/beep-329314.mp3","null","audio-keyboard-response","133","2.1.0","304125","J=YES, F=NO","x75mrfqg6o","0","65","85","45","","","","","","","","","","","","","","","",""
"null","audio/arm.wav","null","audio-keyboard-response","134","2.1.0","304715","J=YES, F=NO","x75mrfqg6o","0","65","85","45","","","","","","","","","","","","","","","",""
"605","
          <p id=""word"" style=""font-size: 40px;"">fold</p>
          <p style=""font-size: 16px;"">J = YES &nbsp;&nbsp;&nbsp; F = NO</p>
        ","j","html-keyboard-response","135","2.1.0","305321","J=YES, F=NO","x75mrfqg6o","0","65","85","45","","","","","","","","","fold","arm","filler","filler","j","true","",""
"null","<p style=""font-size: 50px;"">+</p>","null","html-keyboard-response","136","2.1.0","305636","J=YES, F=NO","x75mrfqg6o","0","65","85","45","","","","","","","","","","","","","","","",""
"null","audio/beep-329314.mp3","null","audio-keyboard-response","137","2.1.0","307165","J=YES, F=NO","x75mrfqg6o","0","65","85","45","","","","","","","","","","","","","","","",""
"null","audio/cave1.wav","null","audio-keyboard-response","138","2.1.0","308036","J=YES, F=NO","x75mrfqg6o","0","65","85","45","","","","","","","","","","","","","","","",""
"null","
          <p id=""word"" style=""font-size: 40px;"">blacket</p>
          <p style=""font-size: 16px;"">J = YES &nbsp;&nbsp;&nbsp; F = NO</p>
        ","null","html-keyboard-response","139","2.1.0","309540","J=YES, F=NO","x75mrfqg6o","0","65","85","45","","","","","","","","","blacket","cave1","pseudoword","pseudoword","f","false","",""
"null","<p style=""font-size: 50px;"">+</p>","null","html-keyboard-response","140","2.1.0","309852","J=YES, F=NO","x75mrfqg6o","0","65","85","45","","","","","","","","","","","","","","","",""
"null","audio/beep-329314.mp3","null","audio-keyboard-response","141","2.1.0","311386","J=YES, F=NO","x75mrfqg6o","0","65","85","45","","","","","","","","","","","","","","","",""
"null","audio/kettle1.wav","null","audio-keyboard-response","142","2.1.0","311895","J=YES, F=NO","x75mrfqg6o","0","65","85","45","","","","","","","","","","","","","","","",""
"754","
          <p id=""word"" style=""font-size: 40px;"">wrap</p>
          <p style=""font-size: 16px;"">J = YES &nbsp;&nbsp;&nbsp; F = NO</p>
        ","j","html-keyboard-response","143","2.1.0","312650","J=YES, F=NO","x75mrfqg6o","0","65","85","45","","","","","","","","","wrap","kettle1","filler","filler","j","true","",""
"null","<p style=""font-size: 50px;"">+</p>","null","html-keyboard-response","144","2.1.0","312955","J=YES, F=NO","x75mrfqg6o","0","65","85","45","","","","","","","","","","","","","","","",""
"null","audio/beep-329314.mp3","null","audio-keyboard-response","145","2.1.0","314486","J=YES, F=NO","x75mrfqg6o","0","65","85","45","","","","","","","","","","","","","","","",""
"null","audio/cancer1.wav","null","audio-keyboard-response","146","2.1.0","315396","J=YES, F=NO","x75mrfqg6o","0","65","85","45","","","","","","","","","","","","","","","",""
"940","
          <p id=""word"" style=""font-size: 40px;"">draw</p>
          <p style=""font-size: 16px;"">J = YES &nbsp;&nbsp;&nbsp; F = NO</p>
        ","j","html-keyboard-response","147","2.1.0","316336","J=YES, F=NO","x75mrfqg6o","0","65","85","45","","","","","","","","","draw","cancer1","filler","filler","j","true","",""
"null","<p style=""font-size: 50px;"">+</p>","null","html-keyboard-response","148","2.1.0","316640","J=YES, F=NO","x75mrfqg6o","0","65","85","45","","","","","","","","","","","","","","","",""
"null","audio/beep-329314.mp3","null","audio-keyboard-response","149","2.1.0","318166","J=YES, F=NO","x75mrfqg6o","0","65","85","45","","","","","","","","","","","","","","","",""
"null","audio/grass.wav","null","audio-keyboard-response","150","2.1.0","319115","J=YES, F=NO","x75mrfqg6o","0","65","85","45","","","","","","","","","","","","","","","",""
"776","
          <p id=""word"" style=""font-size: 40px;"">milames</p>
          <p style=""font-size: 16px;"">J = YES &nbsp;&nbsp;&nbsp; F = NO</p>
        ","f","html-keyboard-response","151","2.1.0","319892","J=YES, F=NO","x75mrfqg6o","0","65","85","45","","","","","","","","","milames","grass","pseudoword","pseudoword","f","true","",""
"null","<p style=""font-size: 50px;"">+</p>","null","html-keyboard-response","152","2.1.0","320207","J=YES, F=NO","x75mrfqg6o","0","65","85","45","","","","","","","","","","","","","","","",""
"null","audio/beep-329314.mp3","null","audio-keyboard-response","153","2.1.0","321745","J=YES, F=NO","x75mrfqg6o","0","65","85","45","","","","","","","","","","","","","","","",""
"null","audio/ego.wav","null","audio-keyboard-response","154","2.1.0","322335","J=YES, F=NO","x75mrfqg6o","0","65","85","45","","","","","","","","","","","","","","","",""
"793","
          <p id=""word"" style=""font-size: 40px;"">bruite</p>
          <p style=""font-size: 16px;"">J = YES &nbsp;&nbsp;&nbsp; F = NO</p>
        ","f","html-keyboard-response","155","2.1.0","323128","J=YES, F=NO","x75mrfqg6o","0","65","85","45","","","","","","","","","bruite","ego","pseudoword","pseudoword","f","true","",""
"null","<p style=""font-size: 50px;"">+</p>","null","html-keyboard-response","156","2.1.0","323439","J=YES, F=NO","x75mrfqg6o","0","65","85","45","","","","","","","","","","","","","","","",""
"null","audio/beep-329314.mp3","null","audio-keyboard-response","157","2.1.0","324966","J=YES, F=NO","x75mrfqg6o","0","65","85","45","","","","","","","","","","","","","","","",""
"null","audio/topic.wav","null","audio-keyboard-response","158","2.1.0","325895","J=YES, F=NO","x75mrfqg6o","0","65","85","45","","","","","","","","","","","","","","","",""
"1499","
          <p id=""word"" style=""font-size: 40px;"">infortuitist</p>
          <p style=""font-size: 16px;"">J = YES &nbsp;&nbsp;&nbsp; F = NO</p>
        ","j","html-keyboard-response","159","2.1.0","327396","J=YES, F=NO","x75mrfqg6o","0","65","85","45","","","","","","","","","infortuitist","topic","pseudoword","pseudoword","f","false","",""
"null","<p style=""font-size: 50px;"">+</p>","null","html-keyboard-response","160","2.1.0","327707","J=YES, F=NO","x75mrfqg6o","0","65","85","45","","","","","","","","","","","","","","","",""
"null","audio/beep-329314.mp3","null","audio-keyboard-response","161","2.1.0","329245","J=YES, F=NO","x75mrfqg6o","0","65","85","45","","","","","","","","","","","","","","","",""
"null","audio/van1.wav","null","audio-keyboard-response","162","2.1.0","330056","J=YES, F=NO","x75mrfqg6o","0","65","85","45","","","","","","","","","","","","","","","",""
"657","
          <p id=""word"" style=""font-size: 40px;"">push</p>
          <p style=""font-size: 16px;"">J = YES &nbsp;&nbsp;&nbsp; F = NO</p>
        ","j","html-keyboard-response","163","2.1.0","330714","J=YES, F=NO","x75mrfqg6o","0","65","85","45","","","","","","","","","push","van1","filler","filler","j","true","",""
"10575","
    <div style=""max-width: 800px; margin: auto; text-align: left;"">
      <h2>Part 2: Main Trials</h2>
      <p>Great job on the practice trials!</p>
      <p>You will now begin the <strong>main set of trials</strong>.</p>
      <p>Remember your key assignments:</p>
      <ul>
        <li><strong>J</strong> = YES (real English word)</li>
        <li><strong>F</strong> = NO (not a real English word)</li>
      </ul>
      <p>Try to respond as <strong>quickly and accurately</strong> as possible.</p>
      <p style=""margin-top: 2em;"">Press any key to begin the main trials.</p>
    </div>
  ","Enter","html-keyboard-response","164","2.1.0","341289","J=YES, F=NO","x75mrfqg6o","0","65","85","45","","","","","","","","","","","","","","","",""
"1648","<p>Starting main block 1 of 8. Press any key to continue.</p>","Enter","html-keyboard-response","165","2.1.0","342937","J=YES, F=NO","x75mrfqg6o","0","65","85","45","","","","","","","","","","","","","","","",""
"null","<p style=""font-size: 50px;"">+</p>","null","html-keyboard-response","166","2.1.0","343245","J=YES, F=NO","x75mrfqg6o","0","65","85","45","","","","","","","","","","","","","","","",""
"null","audio/beep-329314.mp3","null","audio-keyboard-response","167","2.1.0","344759","J=YES, F=NO","x75mrfqg6o","0","65","85","45","","","","","","","","","","","","","","","",""
"null","audio/kettle1.wav","null","audio-keyboard-response","168","2.1.0","345188","J=YES, F=NO","x75mrfqg6o","0","65","85","45","","","","","","","","","","","","","","","",""
"547","
          <p id=""word"" style=""font-size: 40px;"">navigate</p>
          <p style=""font-size: 16px;"">J = YES &nbsp;&nbsp;&nbsp; F = NO</p>
        ","j","html-keyboard-response","169","2.1.0","345736","J=YES, F=NO","x75mrfqg6o","0","65","85","45","","","","","","","","","navigate","kettle1","unrelated","experimental","j","true","",""
"null","<p style=""font-size: 50px;"">+</p>","null","html-keyboard-response","170","2.1.0","346046","J=YES, F=NO","x75mrfqg6o","0","65","85","45","","","","","","","","","","","","","","","",""
"null","audio/beep-329314.mp3","null","audio-keyboard-response","171","2.1.0","347578","J=YES, F=NO","x75mrfqg6o","0","65","85","45","","","","","","","","","","","","","","","",""
"null","audio/tunnel.wav","null","audio-keyboard-response","172","2.1.0","348048","J=YES, F=NO","x75mrfqg6o","0","65","85","45","","","","","","","","","","","","","","","",""
"568","
          <p id=""word"" style=""font-size: 40px;"">gred</p>
          <p style=""font-size: 16px;"">J = YES &nbsp;&nbsp;&nbsp; F = NO</p>
        ","f","html-keyboard-response","173","2.1.0","348616","J=YES, F=NO","x75mrfqg6o","0","65","85","45","","","","","","","","","gred","tunnel","pseudoword","pseudoword","f","true","",""
"null","<p style=""font-size: 50px;"">+</p>","null","html-keyboard-response","174","2.1.0","348932","J=YES, F=NO","x75mrfqg6o","0","65","85","45","","","","","","","","","","","","","","","",""
"null","audio/beep-329314.mp3","null","audio-keyboard-response","175","2.1.0","350458","J=YES, F=NO","x75mrfqg6o","0","65","85","45","","","","","","","","","","","","","","","",""
"null","audio/roof1.wav","null","audio-keyboard-response","176","2.1.0","351028","J=YES, F=NO","x75mrfqg6o","0","65","85","45","","","","","","","","","","","","","","","",""
"469","
          <p id=""word"" style=""font-size: 40px;"">construct</p>
          <p style=""font-size: 16px;"">J = YES &nbsp;&nbsp;&nbsp; F = NO</p>
        ","j","html-keyboard-response","177","2.1.0","351497","J=YES, F=NO","x75mrfqg6o","0","65","85","45","","","","","","","","","construct","roof1","literal","experimental","j","true","",""
"null","<p style=""font-size: 50px;"">+</p>","null","html-keyboard-response","178","2.1.0","351812","J=YES, F=NO","x75mrfqg6o","0","65","85","45","","","","","","","","","","","","","","","",""
"null","audio/beep-329314.mp3","null","audio-keyboard-response","179","2.1.0","353339","J=YES, F=NO","x75mrfqg6o","0","65","85","45","","","","","","","","","","","","","","","",""
"null","audio/novel.wav","null","audio-keyboard-response","180","2.1.0","353869","J=YES, F=NO","x75mrfqg6o","0","65","85","45","","","","","","","","","","","","","","","",""
"515","
          <p id=""word"" style=""font-size: 40px;"">type</p>
          <p style=""font-size: 16px;"">J = YES &nbsp;&nbsp;&nbsp; F = NO</p>
        ","j","html-keyboard-response","181","2.1.0","354385","J=YES, F=NO","x75mrfqg6o","0","65","85","45","","","","","","","","","type","novel","filler","filler","j","true","",""
"null","<p style=""font-size: 50px;"">+</p>","null","html-keyboard-response","182","2.1.0","354694","J=YES, F=NO","x75mrfqg6o","0","65","85","45","","","","","","","","","","","","","","","",""
"null","audio/beep-329314.mp3","null","audio-keyboard-response","183","2.1.0","356218","J=YES, F=NO","x75mrfqg6o","0","65","85","45","","","","","","","","","","","","","","","",""
"null","audio/winter.wav","null","audio-keyboard-response","184","2.1.0","356848","J=YES, F=NO","x75mrfqg6o","0","65","85","45","","","","","","","","","","","","","","","",""
"440","
          <p id=""word"" style=""font-size: 40px;"">expose</p>
          <p style=""font-size: 16px;"">J = YES &nbsp;&nbsp;&nbsp; F = NO</p>
        ","j","html-keyboard-response","185","2.1.0","357289","J=YES, F=NO","x75mrfqg6o","0","65","85","45","","","","","","","","","expose","winter","unrelated","experimental","j","true","",""
"null","<p style=""font-size: 50px;"">+</p>","null","html-keyboard-response","186","2.1.0","357592","J=YES, F=NO","x75mrfqg6o","0","65","85","45","","","","","","","","","","","","","","","",""
"null","audio/beep-329314.mp3","null","audio-keyboard-response","187","2.1.0","359118","J=YES, F=NO","x75mrfqg6o","0","65","85","45","","","","","","","","","","","","","","","",""
"null","audio/arm.wav","null","audio-keyboard-response","188","2.1.0","359648","J=YES, F=NO","x75mrfqg6o","0","65","85","45","","","","","","","","","","","","","","","",""
"351","
          <p id=""word"" style=""font-size: 40px;"">pigne</p>
          <p style=""font-size: 16px;"">J = YES &nbsp;&nbsp;&nbsp; F = NO</p>
        ","j","html-keyboard-response","189","2.1.0","360000","J=YES, F=NO","x75mrfqg6o","0","65","85","45","","","","","","","","","pigne","arm","pseudoword","pseudoword","f","false","",""
"null","<p style=""font-size: 50px;"">+</p>","null","html-keyboard-response","190","2.1.0","360311","J=YES, F=NO","x75mrfqg6o","0","65","85","45","","","","","","","","","","","","","","","",""
"null","audio/beep-329314.mp3","null","audio-keyboard-response","191","2.1.0","361839","J=YES, F=NO","x75mrfqg6o","0","65","85","45","","","","","","","","","","","","","","","",""
"null","audio/novel.wav","null","audio-keyboard-response","192","2.1.0","362309","J=YES, F=NO","x75mrfqg6o","0","65","85","45","","","","","","","","","","","","","","","",""
"675","
          <p id=""word"" style=""font-size: 40px;"">devour</p>
          <p style=""font-size: 16px;"">J = YES &nbsp;&nbsp;&nbsp; F = NO</p>
        ","j","html-keyboard-response","193","2.1.0","362985","J=YES, F=NO","x75mrfqg6o","0","65","85","45","","","","","","","","","devour","novel","metaphor","experimental","j","true","",""
"null","<p style=""font-size: 50px;"">+</p>","null","html-keyboard-response","194","2.1.0","363300","J=YES, F=NO","x75mrfqg6o","0","65","85","45","","","","","","","","","","","","","","","",""
"null","audio/beep-329314.mp3","null","audio-keyboard-response","195","2.1.0","364838","J=YES, F=NO","x75mrfqg6o","0","65","85","45","","","","","","","","","","","","","","","",""
"null","audio/roof1.wav","null","audio-keyboard-response","196","2.1.0","365349","J=YES, F=NO","x75mrfqg6o","0","65","85","45","","","","","","","","","","","","","","","",""
"668","
          <p id=""word"" style=""font-size: 40px;"">wronb</p>
          <p style=""font-size: 16px;"">J = YES &nbsp;&nbsp;&nbsp; F = NO</p>
        ","f","html-keyboard-response","197","2.1.0","366017","J=YES, F=NO","x75mrfqg6o","0","65","85","45","","","","","","","","","wronb","roof1","pseudoword","pseudoword","f","true","",""
"null","<p style=""font-size: 50px;"">+</p>","null","html-keyboard-response","198","2.1.0","366330","J=YES, F=NO","x75mrfqg6o","0","65","85","45","","","","","","","","","","","","","","","",""
"null","audio/beep-329314.mp3","null","audio-keyboard-response","199","2.1.0","367858","J=YES, F=NO","x75mrfqg6o","0","65","85","45","","","","","","","","","","","","","","","",""
"null","audio/tomato.wav","null","audio-keyboard-response","200","2.1.0","368568","J=YES, F=NO","x75mrfqg6o","0","65","85","45","","","","","","","","","","","","","","","",""
"568","
          <p id=""word"" style=""font-size: 40px;"">grow</p>
          <p style=""font-size: 16px;"">J = YES &nbsp;&nbsp;&nbsp; F = NO</p>
        ","j","html-keyboard-response","201","2.1.0","369138","J=YES, F=NO","x75mrfqg6o","0","65","85","45","","","","","","","","","grow","tomato","literal","experimental","j","true","",""
"null","<p style=""font-size: 50px;"">+</p>","null","html-keyboard-response","202","2.1.0","369450","J=YES, F=NO","x75mrfqg6o","0","65","85","45","","","","","","","","","","","","","","","",""
"null","audio/beep-329314.mp3","null","audio-keyboard-response","203","2.1.0","370978","J=YES, F=NO","x75mrfqg6o","0","65","85","45","","","","","","","","","","","","","","","",""
"null","audio/devil1.wav","null","audio-keyboard-response","204","2.1.0","371429","J=YES, F=NO","x75mrfqg6o","0","65","85","45","","","","","","","","","","","","","","","",""
"651","
          <p id=""word"" style=""font-size: 40px;"">carry</p>
          <p style=""font-size: 16px;"">J = YES &nbsp;&nbsp;&nbsp; F = NO</p>
        ","j","html-keyboard-response","205","2.1.0","372080","J=YES, F=NO","x75mrfqg6o","0","65","85","45","","","","","","","","","carry","devil1","unrelated","experimental","j","true","",""
"null","<p style=""font-size: 50px;"">+</p>","null","html-keyboard-response","206","2.1.0","372384","J=YES, F=NO","x75mrfqg6o","0","65","85","45","","","","","","","","","","","","","","","",""
"null","audio/beep-329314.mp3","null","audio-keyboard-response","207","2.1.0","373918","J=YES, F=NO","x75mrfqg6o","0","65","85","45","","","","","","","","","","","","","","","",""
"null","audio/farm1.wav","null","audio-keyboard-response","208","2.1.0","374529","J=YES, F=NO","x75mrfqg6o","0","65","85","45","","","","","","","","","","","","","","","",""
"527","
          <p id=""word"" style=""font-size: 40px;"">catch</p>
          <p style=""font-size: 16px;"">J = YES &nbsp;&nbsp;&nbsp; F = NO</p>
        ","j","html-keyboard-response","209","2.1.0","375056","J=YES, F=NO","x75mrfqg6o","0","65","85","45","","","","","","","","","catch","farm1","unrelated","experimental","j","true","",""
"null","<p style=""font-size: 50px;"">+</p>","null","html-keyboard-response","210","2.1.0","375369","J=YES, F=NO","x75mrfqg6o","0","65","85","45","","","","","","","","","","","","","","","",""
"null","audio/beep-329314.mp3","null","audio-keyboard-response","211","2.1.0","376898","J=YES, F=NO","x75mrfqg6o","0","65","85","45","","","","","","","","","","","","","","","",""
"null","audio/ground.wav","null","audio-keyboard-response","212","2.1.0","377529","J=YES, F=NO","x75mrfqg6o","0","65","85","45","","","","","","","","","","","","","","","",""
"511","
          <p id=""word"" style=""font-size: 40px;"">touch</p>
          <p style=""font-size: 16px;"">J = YES &nbsp;&nbsp;&nbsp; F = NO</p>
        ","j","html-keyboard-response","213","2.1.0","378040","J=YES, F=NO","x75mrfqg6o","0","65","85","45","","","","","","","","","touch","ground","literal","experimental","j","true","",""
"null","<p style=""font-size: 50px;"">+</p>","null","html-keyboard-response","214","2.1.0","378351","J=YES, F=NO","x75mrfqg6o","0","65","85","45","","","","","","","","","","","","","","","",""
"null","audio/beep-329314.mp3","null","audio-keyboard-response","215","2.1.0","379878","J=YES, F=NO","x75mrfqg6o","0","65","85","45","","","","","","","","","","","","","","","",""
"null","audio/rank1.wav","null","audio-keyboard-response","216","2.1.0","380489","J=YES, F=NO","x75mrfqg6o","0","65","85","45","","","","","","","","","","","","","","","",""
"471","
          <p id=""word"" style=""font-size: 40px;"">climb</p>
          <p style=""font-size: 16px;"">J = YES &nbsp;&nbsp;&nbsp; F = NO</p>
        ","j","html-keyboard-response","217","2.1.0","380960","J=YES, F=NO","x75mrfqg6o","0","65","85","45","","","","","","","","","climb","rank1","metaphor","experimental","j","true","",""
"null","<p style=""font-size: 50px;"">+</p>","null","html-keyboard-response","218","2.1.0","381269","J=YES, F=NO","x75mrfqg6o","0","65","85","45","","","","","","","","","","","","","","","",""
"null","audio/beep-329314.mp3","null","audio-keyboard-response","219","2.1.0","382798","J=YES, F=NO","x75mrfqg6o","0","65","85","45","","","","","","","","","","","","","","","",""
"null","audio/chance.wav","null","audio-keyboard-response","220","2.1.0","383489","J=YES, F=NO","x75mrfqg6o","0","65","85","45","","","","","","","","","","","","","","","",""
"551","
          <p id=""word"" style=""font-size: 40px;"">seize</p>
          <p style=""font-size: 16px;"">J = YES &nbsp;&nbsp;&nbsp; F = NO</p>
        ","j","html-keyboard-response","221","2.1.0","384040","J=YES, F=NO","x75mrfqg6o","0","65","85","45","","","","","","","","","seize","chance","metaphor","experimental","j","true","",""
"null","<p style=""font-size: 50px;"">+</p>","null","html-keyboard-response","222","2.1.0","384351","J=YES, F=NO","x75mrfqg6o","0","65","85","45","","","","","","","","","","","","","","","",""
"null","audio/beep-329314.mp3","null","audio-keyboard-response","223","2.1.0","385878","J=YES, F=NO","x75mrfqg6o","0","65","85","45","","","","","","","","","","","","","","","",""
"null","audio/gift1.wav","null","audio-keyboard-response","224","2.1.0","386408","J=YES, F=NO","x75mrfqg6o","0","65","85","45","","","","","","","","","","","","","","","",""
"448","
          <p id=""word"" style=""font-size: 40px;"">protsh</p>
          <p style=""font-size: 16px;"">J = YES &nbsp;&nbsp;&nbsp; F = NO</p>
        ","j","html-keyboard-response","225","2.1.0","386857","J=YES, F=NO","x75mrfqg6o","0","65","85","45","","","","","","","","","protsh","gift1","pseudoword","pseudoword","f","false","",""
"null","<p style=""font-size: 50px;"">+</p>","null","html-keyboard-response","226","2.1.0","387170","J=YES, F=NO","x75mrfqg6o","0","65","85","45","","","","","","","","","","","","","","","",""
"null","audio/beep-329314.mp3","null","audio-keyboard-response","227","2.1.0","388698","J=YES, F=NO","x75mrfqg6o","0","65","85","45","","","","","","","","","","","","","","","",""
"null","audio/stain.wav","null","audio-keyboard-response","228","2.1.0","389389","J=YES, F=NO","x75mrfqg6o","0","65","85","45","","","","","","","","","","","","","","","",""
"475","
          <p id=""word"" style=""font-size: 40px;"">wipe</p>
          <p style=""font-size: 16px;"">J = YES &nbsp;&nbsp;&nbsp; F = NO</p>
        ","j","html-keyboard-response","229","2.1.0","389864","J=YES, F=NO","x75mrfqg6o","0","65","85","45","","","","","","","","","wipe","stain","literal","experimental","j","true","",""
"3903","<p>Excellent! You have finished block 1 of 8.</p>
                     <p>Feel free to take a 30 second break.</p>
                     <p>Press any key when you're ready to continue.</p>","AudioVolumeDown","html-keyboard-response","230","2.1.0","393767","J=YES, F=NO","x75mrfqg6o","0","65","85","45","","","","","","","","","","","","","","","",""
"0","<p>Starting main block 2 of 8. Press any key to continue.</p>","AudioVolumeDown","html-keyboard-response","231","2.1.0","393768","J=YES, F=NO","x75mrfqg6o","0","65","85","45","","","","","","","","","","","","","","","",""
"null","<p style=""font-size: 50px;"">+</p>","null","html-keyboard-response","232","2.1.0","394078","J=YES, F=NO","x75mrfqg6o","0","65","85","45","","","","","","","","","","","","","","","",""
"null","audio/beep-329314.mp3","null","audio-keyboard-response","233","2.1.0","395619","J=YES, F=NO","x75mrfqg6o","0","65","85","45","","","","","","","","","","","","","","","",""
"null","audio/survey1.wav","null","audio-keyboard-response","234","2.1.0","396388","J=YES, F=NO","x75mrfqg6o","0","65","85","45","","","","","","","","","","","","","","","",""
"670","
          <p id=""word"" style=""font-size: 40px;"">imploth</p>
          <p style=""font-size: 16px;"">J = YES &nbsp;&nbsp;&nbsp; F = NO</p>
        ","j","html-keyboard-response","235","2.1.0","397058","J=YES, F=NO","x75mrfqg6o","0","65","85","45","","","","","","","","","imploth","survey1","pseudoword","pseudoword","f","false","",""
"null","<p style=""font-size: 50px;"">+</p>","null","html-keyboard-response","236","2.1.0","397367","J=YES, F=NO","x75mrfqg6o","0","65","85","45","","","","","","","","","","","","","","","",""
"null","audio/beep-329314.mp3","null","audio-keyboard-response","237","2.1.0","398898","J=YES, F=NO","x75mrfqg6o","0","65","85","45","","","","","","","","","","","","","","","",""
"null","audio/tomato.wav","null","audio-keyboard-response","238","2.1.0","399548","J=YES, F=NO","x75mrfqg6o","0","65","85","45","","","","","","","","","","","","","","","",""
"629","
          <p id=""word"" style=""font-size: 40px;"">gladies</p>
          <p style=""font-size: 16px;"">J = YES &nbsp;&nbsp;&nbsp; F = NO</p>
        ","f","html-keyboard-response","239","2.1.0","400178","J=YES, F=NO","x75mrfqg6o","0","65","85","45","","","","","","","","","gladies","tomato","pseudoword","pseudoword","f","true","",""
"null","<p style=""font-size: 50px;"">+</p>","null","html-keyboard-response","240","2.1.0","400489","J=YES, F=NO","x75mrfqg6o","0","65","85","45","","","","","","","","","","","","","","","",""
"null","audio/beep-329314.mp3","null","audio-keyboard-response","241","2.1.0","402019","J=YES, F=NO","x75mrfqg6o","0","65","85","45","","","","","","","","","","","","","","","",""
"null","audio/fortune1.wav","null","audio-keyboard-response","242","2.1.0","402829","J=YES, F=NO","x75mrfqg6o","0","65","85","45","","","","","","","","","","","","","","","",""
"565","
          <p id=""word"" style=""font-size: 40px;"">spend</p>
          <p style=""font-size: 16px;"">J = YES &nbsp;&nbsp;&nbsp; F = NO</p>
        ","j","html-keyboard-response","243","2.1.0","403395","J=YES, F=NO","x75mrfqg6o","0","65","85","45","","","","","","","","","spend","fortune1","literal","experimental","j","true","",""
"null","<p style=""font-size: 50px;"">+</p>","null","html-keyboard-response","244","2.1.0","403705","J=YES, F=NO","x75mrfqg6o","0","65","85","45","","","","","","","","","","","","","","","",""
"null","audio/beep-329314.mp3","null","audio-keyboard-response","245","2.1.0","405238","J=YES, F=NO","x75mrfqg6o","0","65","85","45","","","","","","","","","","","","","","","",""
"null","audio/emotion.wav","null","audio-keyboard-response","246","2.1.0","405929","J=YES, F=NO","x75mrfqg6o","0","65","85","45","","","","","","","","","","","","","","","",""
"495","
          <p id=""word"" style=""font-size: 40px;"">devering</p>
          <p style=""font-size: 16px;"">J = YES &nbsp;&nbsp;&nbsp; F = NO</p>
        ","j","html-keyboard-response","247","2.1.0","406425","J=YES, F=NO","x75mrfqg6o","0","65","85","45","","","","","","","","","devering","emotion","pseudoword","pseudoword","f","false","",""
"null","<p style=""font-size: 50px;"">+</p>","null","html-keyboard-response","248","2.1.0","406741","J=YES, F=NO","x75mrfqg6o","0","65","85","45","","","","","","","","","","","","","","","",""
"null","audio/beep-329314.mp3","null","audio-keyboard-response","249","2.1.0","408278","J=YES, F=NO","x75mrfqg6o","0","65","85","45","","","","","","","","","","","","","","","",""
"null","audio/winter.wav","null","audio-keyboard-response","250","2.1.0","408829","J=YES, F=NO","x75mrfqg6o","0","65","85","45","","","","","","","","","","","","","","","",""
"807","
          <p id=""word"" style=""font-size: 40px;"">straven</p>
          <p style=""font-size: 16px;"">J = YES &nbsp;&nbsp;&nbsp; F = NO</p>
        ","f","html-keyboard-response","251","2.1.0","409637","J=YES, F=NO","x75mrfqg6o","0","65","85","45","","","","","","","","","straven","winter","pseudoword","pseudoword","f","true","",""
"null","<p style=""font-size: 50px;"">+</p>","null","html-keyboard-response","252","2.1.0","409949","J=YES, F=NO","x75mrfqg6o","0","65","85","45","","","","","","","","","","","","","","","",""
"null","audio/beep-329314.mp3","null","audio-keyboard-response","253","2.1.0","411478","J=YES, F=NO","x75mrfqg6o","0","65","85","45","","","","","","","","","","","","","","","",""
"null","audio/purpose.wav","null","audio-keyboard-response","254","2.1.0","412189","J=YES, F=NO","x75mrfqg6o","0","65","85","45","","","","","","","","","","","","","","","",""
"643","
          <p id=""word"" style=""font-size: 40px;"">whigm</p>
          <p style=""font-size: 16px;"">J = YES &nbsp;&nbsp;&nbsp; F = NO</p>
        ","f","html-keyboard-response","255","2.1.0","412832","J=YES, F=NO","x75mrfqg6o","0","65","85","45","","","","","","","","","whigm","purpose","pseudoword","pseudoword","f","true","",""
"null","<p style=""font-size: 50px;"">+</p>","null","html-keyboard-response","256","2.1.0","413144","J=YES, F=NO","x75mrfqg6o","0","65","85","45","","","","","","","","","","","","","","","",""
"null","audio/beep-329314.mp3","null","audio-keyboard-response","257","2.1.0","414678","J=YES, F=NO","x75mrfqg6o","0","65","85","45","","","","","","","","","","","","","","","",""
"null","audio/wool1.wav","null","audio-keyboard-response","258","2.1.0","415088","J=YES, F=NO","x75mrfqg6o","0","65","85","45","","","","","","","","","","","","","","","",""
"807","
          <p id=""word"" style=""font-size: 40px;"">weave</p>
          <p style=""font-size: 16px;"">J = YES &nbsp;&nbsp;&nbsp; F = NO</p>
        ","j","html-keyboard-response","259","2.1.0","415896","J=YES, F=NO","x75mrfqg6o","0","65","85","45","","","","","","","","","weave","wool1","literal","experimental","j","true","",""
"null","<p style=""font-size: 50px;"">+</p>","null","html-keyboard-response","260","2.1.0","416214","J=YES, F=NO","x75mrfqg6o","0","65","85","45","","","","","","","","","","","","","","","",""
"null","audio/beep-329314.mp3","null","audio-keyboard-response","261","2.1.0","417738","J=YES, F=NO","x75mrfqg6o","0","65","85","45","","","","","","","","","","","","","","","",""
"null","audio/tunnel.wav","null","audio-keyboard-response","262","2.1.0","418148","J=YES, F=NO","x75mrfqg6o","0","65","85","45","","","","","","","","","","","","","","","",""
"540","
          <p id=""word"" style=""font-size: 40px;"">grasp</p>
          <p style=""font-size: 16px;"">J = YES &nbsp;&nbsp;&nbsp; F = NO</p>
        ","j","html-keyboard-response","263","2.1.0","418689","J=YES, F=NO","x75mrfqg6o","0","65","85","45","","","","","","","","","grasp","tunnel","unrelated","experimental","j","true","",""
"null","<p style=""font-size: 50px;"">+</p>","null","html-keyboard-response","264","2.1.0","419001","J=YES, F=NO","x75mrfqg6o","0","65","85","45","","","","","","","","","","","","","","","",""
"null","audio/beep-329314.mp3","null","audio-keyboard-response","265","2.1.0","420539","J=YES, F=NO","x75mrfqg6o","0","65","85","45","","","","","","","","","","","","","","","",""
"null","audio/mood1.wav","null","audio-keyboard-response","266","2.1.0","421069","J=YES, F=NO","x75mrfqg6o","0","65","85","45","","","","","","","","","","","","","","","",""
"492","
          <p id=""word"" style=""font-size: 40px;"">give</p>
          <p style=""font-size: 16px;"">J = YES &nbsp;&nbsp;&nbsp; F = NO</p>
        ","j","html-keyboard-response","267","2.1.0","421561","J=YES, F=NO","x75mrfqg6o","0","65","85","45","","","","","","","","","give","mood1","unrelated","experimental","j","true","",""
"null","<p style=""font-size: 50px;"">+</p>","null","html-keyboard-response","268","2.1.0","421876","J=YES, F=NO","x75mrfqg6o","0","65","85","45","","","","","","","","","","","","","","","",""
"null","audio/beep-329314.mp3","null","audio-keyboard-response","269","2.1.0","423399","J=YES, F=NO","x75mrfqg6o","0","65","85","45","","","","","","","","","","","","","","","",""
"null","audio/empire.wav","null","audio-keyboard-response","270","2.1.0","424069","J=YES, F=NO","x75mrfqg6o","0","65","85","45","","","","","","","","","","","","","","","",""
"676","
          <p id=""word"" style=""font-size: 40px;"">slorby</p>
          <p style=""font-size: 16px;"">J = YES &nbsp;&nbsp;&nbsp; F = NO</p>
        ","f","html-keyboard-response","271","2.1.0","424746","J=YES, F=NO","x75mrfqg6o","0","65","85","45","","","","","","","","","slorby","empire","pseudoword","pseudoword","f","true","",""
"null","<p style=""font-size: 50px;"">+</p>","null","html-keyboard-response","272","2.1.0","425050","J=YES, F=NO","x75mrfqg6o","0","65","85","45","","","","","","","","","","","","","","","",""
"null","audio/beep-329314.mp3","null","audio-keyboard-response","273","2.1.0","426579","J=YES, F=NO","x75mrfqg6o","0","65","85","45","","","","","","","","","","","","","","","",""
"null","audio/survey1.wav","null","audio-keyboard-response","274","2.1.0","427289","J=YES, F=NO","x75mrfqg6o","0","65","85","45","","","","","","","","","","","","","","","",""
"400","
          <p id=""word"" style=""font-size: 40px;"">release</p>
          <p style=""font-size: 16px;"">J = YES &nbsp;&nbsp;&nbsp; F = NO</p>
        ","j","html-keyboard-response","275","2.1.0","427689","J=YES, F=NO","x75mrfqg6o","0","65","85","45","","","","","","","","","release","survey1","metaphor","experimental","j","true","",""
"null","<p style=""font-size: 50px;"">+</p>","null","html-keyboard-response","276","2.1.0","427996","J=YES, F=NO","x75mrfqg6o","0","65","85","45","","","","","","","","","","","","","","","",""
"null","audio/beep-329314.mp3","null","audio-keyboard-response","277","2.1.0","429518","J=YES, F=NO","x75mrfqg6o","0","65","85","45","","","","","","","","","","","","","","","",""
"null","audio/hotel1.wav","null","audio-keyboard-response","278","2.1.0","430189","J=YES, F=NO","x75mrfqg6o","0","65","85","45","","","","","","","","","","","","","","","",""
"563","
          <p id=""word"" style=""font-size: 40px;"">flanter</p>
          <p style=""font-size: 16px;"">J = YES &nbsp;&nbsp;&nbsp; F = NO</p>
        ","f","html-keyboard-response","279","2.1.0","430753","J=YES, F=NO","x75mrfqg6o","0","65","85","45","","","","","","","","","flanter","hotel1","pseudoword","pseudoword","f","true","",""
"null","<p style=""font-size: 50px;"">+</p>","null","html-keyboard-response","280","2.1.0","431066","J=YES, F=NO","x75mrfqg6o","0","65","85","45","","","","","","","","","","","","","","","",""
"null","audio/beep-329314.mp3","null","audio-keyboard-response","281","2.1.0","432598","J=YES, F=NO","x75mrfqg6o","0","65","85","45","","","","","","","","","","","","","","","",""
"null","audio/emotion.wav","null","audio-keyboard-response","282","2.1.0","433228","J=YES, F=NO","x75mrfqg6o","0","65","85","45","","","","","","","","","","","","","","","",""
"508","
          <p id=""word"" style=""font-size: 40px;"">bury</p>
          <p style=""font-size: 16px;"">J = YES &nbsp;&nbsp;&nbsp; F = NO</p>
        ","j","html-keyboard-response","283","2.1.0","433737","J=YES, F=NO","x75mrfqg6o","0","65","85","45","","","","","","","","","bury","emotion","metaphor","experimental","j","true","",""
"null","<p style=""font-size: 50px;"">+</p>","null","html-keyboard-response","284","2.1.0","434046","J=YES, F=NO","x75mrfqg6o","0","65","85","45","","","","","","","","","","","","","","","",""
"null","audio/beep-329314.mp3","null","audio-keyboard-response","285","2.1.0","435578","J=YES, F=NO","x75mrfqg6o","0","65","85","45","","","","","","","","","","","","","","","",""
"null","audio/uncle1.wav","null","audio-keyboard-response","286","2.1.0","436069","J=YES, F=NO","x75mrfqg6o","0","65","85","45","","","","","","","","","","","","","","","",""
"420","
          <p id=""word"" style=""font-size: 40px;"">break</p>
          <p style=""font-size: 16px;"">J = YES &nbsp;&nbsp;&nbsp; F = NO</p>
        ","j","html-keyboard-response","287","2.1.0","436489","J=YES, F=NO","x75mrfqg6o","0","65","85","45","","","","","","","","","break","uncle1","unrelated","experimental","j","true","",""
"null","<p style=""font-size: 50px;"">+</p>","null","html-keyboard-response","288","2.1.0","436798","J=YES, F=NO","x75mrfqg6o","0","65","85","45","","","","","","","","","","","","","","","",""
"null","audio/beep-329314.mp3","null","audio-keyboard-response","289","2.1.0","438339","J=YES, F=NO","x75mrfqg6o","0","65","85","45","","","","","","","","","","","","","","","",""
"null","audio/floor.wav","null","audio-keyboard-response","290","2.1.0","438888","J=YES, F=NO","x75mrfqg6o","0","65","85","45","","","","","","","","","","","","","","","",""
"448","
          <p id=""word"" style=""font-size: 40px;"">cover</p>
          <p style=""font-size: 16px;"">J = YES &nbsp;&nbsp;&nbsp; F = NO</p>
        ","j","html-keyboard-response","291","2.1.0","439336","J=YES, F=NO","x75mrfqg6o","0","65","85","45","","","","","","","","","cover","floor","literal","experimental","j","true","",""
"null","<p style=""font-size: 50px;"">+</p>","null","html-keyboard-response","292","2.1.0","439646","J=YES, F=NO","x75mrfqg6o","0","65","85","45","","","","","","","","","","","","","","","",""
"null","audio/beep-329314.mp3","null","audio-keyboard-response","293","2.1.0","441179","J=YES, F=NO","x75mrfqg6o","0","65","85","45","","","","","","","","","","","","","","","",""
"null","audio/hawk1.wav","null","audio-keyboard-response","294","2.1.0","441768","J=YES, F=NO","x75mrfqg6o","0","65","85","45","","","","","","","","","","","","","","","",""
"616","
          <p id=""word"" style=""font-size: 40px;"">ostach</p>
          <p style=""font-size: 16px;"">J = YES &nbsp;&nbsp;&nbsp; F = NO</p>
        ","f","html-keyboard-response","295","2.1.0","442384","J=YES, F=NO","x75mrfqg6o","0","65","85","45","","","","","","","","","ostach","hawk1","pseudoword","pseudoword","f","true","",""
"9328","<p>Excellent! You have finished block 2 of 8.</p>
                     <p>Feel free to take a 30 second break.</p>
                     <p>Press any key when you're ready to continue.</p>"," ","html-keyboard-response","296","2.1.0","451713","J=YES, F=NO","x75mrfqg6o","0","65","85","45","","","","","","","","","","","","","","","",""
"1057","<p>Starting main block 3 of 8. Press any key to continue.</p>"," ","html-keyboard-response","297","2.1.0","452770","J=YES, F=NO","x75mrfqg6o","0","65","85","45","","","","","","","","","","","","","","","",""
"null","<p style=""font-size: 50px;"">+</p>","null","html-keyboard-response","298","2.1.0","453086","J=YES, F=NO","x75mrfqg6o","0","65","85","45","","","","","","","","","","","","","","","",""
"null","audio/beep-329314.mp3","null","audio-keyboard-response","299","2.1.0","454602","J=YES, F=NO","x75mrfqg6o","0","65","85","45","","","","","","","","","","","","","","","",""
"null","audio/meal.wav","null","audio-keyboard-response","300","2.1.0","455009","J=YES, F=NO","x75mrfqg6o","0","65","85","45","","","","","","","","","","","","","","","",""
"486","
          <p id=""word"" style=""font-size: 40px;"">share</p>
          <p style=""font-size: 16px;"">J = YES &nbsp;&nbsp;&nbsp; F = NO</p>
        ","j","html-keyboard-response","301","2.1.0","455496","J=YES, F=NO","x75mrfqg6o","0","65","85","45","","","","","","","","","share","meal","literal","experimental","j","true","",""
"null","<p style=""font-size: 50px;"">+</p>","null","html-keyboard-response","302","2.1.0","455799","J=YES, F=NO","x75mrfqg6o","0","65","85","45","","","","","","","","","","","","","","","",""
"null","audio/beep-329314.mp3","null","audio-keyboard-response","303","2.1.0","457340","J=YES, F=NO","x75mrfqg6o","0","65","85","45","","","","","","","","","","","","","","","",""
"null","audio/voice.wav","null","audio-keyboard-response","304","2.1.0","457969","J=YES, F=NO","x75mrfqg6o","0","65","85","45","","","","","","","","","","","","","","","",""
"671","
          <p id=""word"" style=""font-size: 40px;"">grintle</p>
          <p style=""font-size: 16px;"">J = YES &nbsp;&nbsp;&nbsp; F = NO</p>
        ","f","html-keyboard-response","305","2.1.0","458640","J=YES, F=NO","x75mrfqg6o","0","65","85","45","","","","","","","","","grintle","voice","pseudoword","pseudoword","f","true","",""
"null","<p style=""font-size: 50px;"">+</p>","null","html-keyboard-response","306","2.1.0","458944","J=YES, F=NO","x75mrfqg6o","0","65","85","45","","","","","","","","","","","","","","","",""
"null","audio/beep-329314.mp3","null","audio-keyboard-response","307","2.1.0","460479","J=YES, F=NO","x75mrfqg6o","0","65","85","45","","","","","","","","","","","","","","","",""
"null","audio/pain1.wav","null","audio-keyboard-response","308","2.1.0","460969","J=YES, F=NO","x75mrfqg6o","0","65","85","45","","","","","","","","","","","","","","","",""
"544","
          <p id=""word"" style=""font-size: 40px;"">tritted</p>
          <p style=""font-size: 16px;"">J = YES &nbsp;&nbsp;&nbsp; F = NO</p>
        ","j","html-keyboard-response","309","2.1.0","461514","J=YES, F=NO","x75mrfqg6o","0","65","85","45","","","","","","","","","tritted","pain1","pseudoword","pseudoword","f","false","",""
"null","<p style=""font-size: 50px;"">+</p>","null","html-keyboard-response","310","2.1.0","461818","J=YES, F=NO","x75mrfqg6o","0","65","85","45","","","","","","","","","","","","","","","",""
"null","audio/beep-329314.mp3","null","audio-keyboard-response","311","2.1.0","463340","J=YES, F=NO","x75mrfqg6o","0","65","85","45","","","","","","","","","","","","","","","",""
"null","audio/foe1.wav","null","audio-keyboard-response","312","2.1.0","463889","J=YES, F=NO","x75mrfqg6o","0","65","85","45","","","","","","","","","","","","","","","",""
"608","
          <p id=""word"" style=""font-size: 40px;"">creth</p>
          <p style=""font-size: 16px;"">J = YES &nbsp;&nbsp;&nbsp; F = NO</p>
        ","f","html-keyboard-response","313","2.1.0","464498","J=YES, F=NO","x75mrfqg6o","0","65","85","45","","","","","","","","","creth","foe1","pseudoword","pseudoword","f","true","",""
"null","<p style=""font-size: 50px;"">+</p>","null","html-keyboard-response","314","2.1.0","464803","J=YES, F=NO","x75mrfqg6o","0","65","85","45","","","","","","","","","","","","","","","",""
"null","audio/beep-329314.mp3","null","audio-keyboard-response","315","2.1.0","466339","J=YES, F=NO","x75mrfqg6o","0","65","85","45","","","","","","","","","","","","","","","",""
"null","audio/theory1.wav","null","audio-keyboard-response","316","2.1.0","467029","J=YES, F=NO","x75mrfqg6o","0","65","85","45","","","","","","","","","","","","","","","",""
"619","
          <p id=""word"" style=""font-size: 40px;"">scolve</p>
          <p style=""font-size: 16px;"">J = YES &nbsp;&nbsp;&nbsp; F = NO</p>
        ","j","html-keyboard-response","317","2.1.0","467649","J=YES, F=NO","x75mrfqg6o","0","65","85","45","","","","","","","","","scolve","theory1","pseudoword","pseudoword","f","false","",""
"null","<p style=""font-size: 50px;"">+</p>","null","html-keyboard-response","318","2.1.0","467964","J=YES, F=NO","x75mrfqg6o","0","65","85","45","","","","","","","","","","","","","","","",""
"null","audio/beep-329314.mp3","null","audio-keyboard-response","319","2.1.0","469500","J=YES, F=NO","x75mrfqg6o","0","65","85","45","","","","","","","","","","","","","","","",""
"null","audio/alarm1.wav","null","audio-keyboard-response","320","2.1.0","470129","J=YES, F=NO","x75mrfqg6o","0","65","85","45","","","","","","","","","","","","","","","",""
"432","
          <p id=""word"" style=""font-size: 40px;"">swetp</p>
          <p style=""font-size: 16px;"">J = YES &nbsp;&nbsp;&nbsp; F = NO</p>
        ","j","html-keyboard-response","321","2.1.0","470561","J=YES, F=NO","x75mrfqg6o","0","65","85","45","","","","","","","","","swetp","alarm1","pseudoword","pseudoword","f","false","",""
"null","<p style=""font-size: 50px;"">+</p>","null","html-keyboard-response","322","2.1.0","470869","J=YES, F=NO","x75mrfqg6o","0","65","85","45","","","","","","","","","","","","","","","",""
"null","audio/beep-329314.mp3","null","audio-keyboard-response","323","2.1.0","472399","J=YES, F=NO","x75mrfqg6o","0","65","85","45","","","","","","","","","","","","","","","",""
"null","audio/table1.wav","null","audio-keyboard-response","324","2.1.0","472929","J=YES, F=NO","x75mrfqg6o","0","65","85","45","","","","","","","","","","","","","","","",""
"727","
          <p id=""word"" style=""font-size: 40px;"">stimb</p>
          <p style=""font-size: 16px;"">J = YES &nbsp;&nbsp;&nbsp; F = NO</p>
        ","f","html-keyboard-response","325","2.1.0","473657","J=YES, F=NO","x75mrfqg6o","0","65","85","45","","","","","","","","","stimb","table1","pseudoword","pseudoword","f","true","",""
"null","<p style=""font-size: 50px;"">+</p>","null","html-keyboard-response","326","2.1.0","473963","J=YES, F=NO","x75mrfqg6o","0","65","85","45","","","","","","","","","","","","","","","",""
"null","audio/beep-329314.mp3","null","audio-keyboard-response","327","2.1.0","475499","J=YES, F=NO","x75mrfqg6o","0","65","85","45","","","","","","","","","","","","","","","",""
"null","audio/bishop1.wav","null","audio-keyboard-response","328","2.1.0","476129","J=YES, F=NO","x75mrfqg6o","0","65","85","45","","","","","","","","","","","","","","","",""
"416","
          <p id=""word"" style=""font-size: 40px;"">play</p>
          <p style=""font-size: 16px;"">J = YES &nbsp;&nbsp;&nbsp; F = NO</p>
        ","j","html-keyboard-response","329","2.1.0","476546","J=YES, F=NO","x75mrfqg6o","0","65","85","45","","","","","","","","","play","bishop1","filler","filler","j","true","",""
"null","<p style=""font-size: 50px;"">+</p>","null","html-keyboard-response","330","2.1.0","476854","J=YES, F=NO","x75mrfqg6o","0","65","85","45","","","","","","","","","","","","","","","",""
"null","audio/beep-329314.mp3","null","audio-keyboard-response","331","2.1.0","478379","J=YES, F=NO","x75mrfqg6o","0","65","85","45","","","","","","","","","","","","","","","",""
"null","audio/weight1.wav","null","audio-keyboard-response","332","2.1.0","478950","J=YES, F=NO","x75mrfqg6o","0","65","85","45","","","","","","","","","","","","","","","",""
"754","
          <p id=""word"" style=""font-size: 40px;"">crimsh</p>
          <p style=""font-size: 16px;"">J = YES &nbsp;&nbsp;&nbsp; F = NO</p>
        ","f","html-keyboard-response","333","2.1.0","479704","J=YES, F=NO","x75mrfqg6o","0","65","85","45","","","","","","","","","crimsh","weight1","pseudoword","pseudoword","f","true","",""
"null","<p style=""font-size: 50px;"">+</p>","null","html-keyboard-response","334","2.1.0","480013","J=YES, F=NO","x75mrfqg6o","0","65","85","45","","","","","","","","","","","","","","","",""
"null","audio/beep-329314.mp3","null","audio-keyboard-response","335","2.1.0","481539","J=YES, F=NO","x75mrfqg6o","0","65","85","45","","","","","","","","","","","","","","","",""
"null","audio/noise1.wav","null","audio-keyboard-response","336","2.1.0","482190","J=YES, F=NO","x75mrfqg6o","0","65","85","45","","","","","","","","","","","","","","","",""
"811","
          <p id=""word"" style=""font-size: 40px;"">slintered</p>
          <p style=""font-size: 16px;"">J = YES &nbsp;&nbsp;&nbsp; F = NO</p>
        ","f","html-keyboard-response","337","2.1.0","483001","J=YES, F=NO","x75mrfqg6o","0","65","85","45","","","","","","","","","slintered","noise1","pseudoword","pseudoword","f","true","",""
"null","<p style=""font-size: 50px;"">+</p>","null","html-keyboard-response","338","2.1.0","483307","J=YES, F=NO","x75mrfqg6o","0","65","85","45","","","","","","","","","","","","","","","",""
"null","audio/beep-329314.mp3","null","audio-keyboard-response","339","2.1.0","484840","J=YES, F=NO","x75mrfqg6o","0","65","85","45","","","","","","","","","","","","","","","",""
"null","audio/planet1.wav","null","audio-keyboard-response","340","2.1.0","485469","J=YES, F=NO","x75mrfqg6o","0","65","85","45","","","","","","","","","","","","","","","",""
"490","
          <p id=""word"" style=""font-size: 40px;"">cratched</p>
          <p style=""font-size: 16px;"">J = YES &nbsp;&nbsp;&nbsp; F = NO</p>
        ","j","html-keyboard-response","341","2.1.0","485960","J=YES, F=NO","x75mrfqg6o","0","65","85","45","","","","","","","","","cratched","planet1","pseudoword","pseudoword","f","false","",""
"null","<p style=""font-size: 50px;"">+</p>","null","html-keyboard-response","342","2.1.0","486276","J=YES, F=NO","x75mrfqg6o","0","65","85","45","","","","","","","","","","","","","","","",""
"null","audio/beep-329314.mp3","null","audio-keyboard-response","343","2.1.0","487800","J=YES, F=NO","x75mrfqg6o","0","65","85","45","","","","","","","","","","","","","","","",""
"null","audio/effort.wav","null","audio-keyboard-response","344","2.1.0","488430","J=YES, F=NO","x75mrfqg6o","0","65","85","45","","","","","","","","","","","","","","","",""
"675","
          <p id=""word"" style=""font-size: 40px;"">whonk</p>
          <p style=""font-size: 16px;"">J = YES &nbsp;&nbsp;&nbsp; F = NO</p>
        ","f","html-keyboard-response","345","2.1.0","489105","J=YES, F=NO","x75mrfqg6o","0","65","85","45","","","","","","","","","whonk","effort","pseudoword","pseudoword","f","true","",""
"null","<p style=""font-size: 50px;"">+</p>","null","html-keyboard-response","346","2.1.0","489407","J=YES, F=NO","x75mrfqg6o","0","65","85","45","","","","","","","","","","","","","","","",""
"null","audio/beep-329314.mp3","null","audio-keyboard-response","347","2.1.0","490939","J=YES, F=NO","x75mrfqg6o","0","65","85","45","","","","","","","","","","","","","","","",""
"null","audio/show.wav","null","audio-keyboard-response","348","2.1.0","491529","J=YES, F=NO","x75mrfqg6o","0","65","85","45","","","","","","","","","","","","","","","",""
"495","
          <p id=""word"" style=""font-size: 40px;"">smark</p>
          <p style=""font-size: 16px;"">J = YES &nbsp;&nbsp;&nbsp; F = NO</p>
        ","j","html-keyboard-response","349","2.1.0","492025","J=YES, F=NO","x75mrfqg6o","0","65","85","45","","","","","","","","","smark","show","pseudoword","pseudoword","f","false","",""
"null","<p style=""font-size: 50px;"">+</p>","null","html-keyboard-response","350","2.1.0","492339","J=YES, F=NO","x75mrfqg6o","0","65","85","45","","","","","","","","","","","","","","","",""
"null","audio/beep-329314.mp3","null","audio-keyboard-response","351","2.1.0","493879","J=YES, F=NO","x75mrfqg6o","0","65","85","45","","","","","","","","","","","","","","","",""
"null","audio/haste1.wav","null","audio-keyboard-response","352","2.1.0","494489","J=YES, F=NO","x75mrfqg6o","0","65","85","45","","","","","","","","","","","","","","","",""
"824","
          <p id=""word"" style=""font-size: 40px;"">coraconate</p>
          <p style=""font-size: 16px;"">J = YES &nbsp;&nbsp;&nbsp; F = NO</p>
        ","j","html-keyboard-response","353","2.1.0","495313","J=YES, F=NO","x75mrfqg6o","0","65","85","45","","","","","","","","","coraconate","haste1","pseudoword","pseudoword","f","false","",""
"null","<p style=""font-size: 50px;"">+</p>","null","html-keyboard-response","354","2.1.0","495625","J=YES, F=NO","x75mrfqg6o","0","65","85","45","","","","","","","","","","","","","","","",""
"null","audio/beep-329314.mp3","null","audio-keyboard-response","355","2.1.0","497159","J=YES, F=NO","x75mrfqg6o","0","65","85","45","","","","","","","","","","","","","","","",""
"null","audio/fence.wav","null","audio-keyboard-response","356","2.1.0","497849","J=YES, F=NO","x75mrfqg6o","0","65","85","45","","","","","","","","","","","","","","","",""
"559","
          <p id=""word"" style=""font-size: 40px;"">trim</p>
          <p style=""font-size: 16px;"">J = YES &nbsp;&nbsp;&nbsp; F = NO</p>
        ","f","html-keyboard-response","357","2.1.0","498409","J=YES, F=NO","x75mrfqg6o","0","65","85","45","","","","","","","","","trim","fence","filler","filler","j","false","",""
"null","<p style=""font-size: 50px;"">+</p>","null","html-keyboard-response","358","2.1.0","498723","J=YES, F=NO","x75mrfqg6o","0","65","85","45","","","","","","","","","","","","","","","",""
"null","audio/beep-329314.mp3","null","audio-keyboard-response","359","2.1.0","500259","J=YES, F=NO","x75mrfqg6o","0","65","85","45","","","","","","","","","","","","","","","",""
"null","audio/planet1.wav","null","audio-keyboard-response","360","2.1.0","500829","J=YES, F=NO","x75mrfqg6o","0","65","85","45","","","","","","","","","","","","","","","",""
"428","
          <p id=""word"" style=""font-size: 40px;"">save</p>
          <p style=""font-size: 16px;"">J = YES &nbsp;&nbsp;&nbsp; F = NO</p>
        ","j","html-keyboard-response","361","2.1.0","501257","J=YES, F=NO","x75mrfqg6o","0","65","85","45","","","","","","","","","save","planet1","metaphor","experimental","j","true","",""
"1942","<p>Excellent! You have finished block 3 of 8.</p>
                     <p>Feel free to take a 30 second break.</p>
                     <p>Press any key when you're ready to continue.</p>","j","html-keyboard-response","362","2.1.0","503200","J=YES, F=NO","x75mrfqg6o","0","65","85","45","","","","","","","","","","","","","","","",""
"1416","<p>Starting main block 4 of 8. Press any key to continue.</p>"," ","html-keyboard-response","363","2.1.0","504616","J=YES, F=NO","x75mrfqg6o","0","65","85","45","","","","","","","","","","","","","","","",""
"null","<p style=""font-size: 50px;"">+</p>","null","html-keyboard-response","364","2.1.0","504931","J=YES, F=NO","x75mrfqg6o","0","65","85","45","","","","","","","","","","","","","","","",""
"null","audio/beep-329314.mp3","null","audio-keyboard-response","365","2.1.0","506459","J=YES, F=NO","x75mrfqg6o","0","65","85","45","","","","","","","","","","","","","","","",""
"null","audio/stain.wav","null","audio-keyboard-response","366","2.1.0","507089","J=YES, F=NO","x75mrfqg6o","0","65","85","45","","","","","","","","","","","","","","","",""
"598","
          <p id=""word"" style=""font-size: 40px;"">rumpsied</p>
          <p style=""font-size: 16px;"">J = YES &nbsp;&nbsp;&nbsp; F = NO</p>
        ","f","html-keyboard-response","367","2.1.0","507688","J=YES, F=NO","x75mrfqg6o","0","65","85","45","","","","","","","","","rumpsied","stain","pseudoword","pseudoword","f","true","",""
"null","<p style=""font-size: 50px;"">+</p>","null","html-keyboard-response","368","2.1.0","507995","J=YES, F=NO","x75mrfqg6o","0","65","85","45","","","","","","","","","","","","","","","",""
"null","audio/beep-329314.mp3","null","audio-keyboard-response","369","2.1.0","509519","J=YES, F=NO","x75mrfqg6o","0","65","85","45","","","","","","","","","","","","","","","",""
"null","audio/ankle1.wav","null","audio-keyboard-response","370","2.1.0","510089","J=YES, F=NO","x75mrfqg6o","0","65","85","45","","","","","","","","","","","","","","","",""
"358","
          <p id=""word"" style=""font-size: 40px;"">kick</p>
          <p style=""font-size: 16px;"">J = YES &nbsp;&nbsp;&nbsp; F = NO</p>
        ","j","html-keyboard-response","371","2.1.0","510448","J=YES, F=NO","x75mrfqg6o","0","65","85","45","","","","","","","","","kick","ankle1","filler","filler","j","true","",""
"null","<p style=""font-size: 50px;"">+</p>","null","html-keyboard-response","372","2.1.0","510761","J=YES, F=NO","x75mrfqg6o","0","65","85","45","","","","","","","","","","","","","","","",""
"null","audio/beep-329314.mp3","null","audio-keyboard-response","373","2.1.0","512299","J=YES, F=NO","x75mrfqg6o","0","65","85","45","","","","","","","","","","","","","","","",""
"null","audio/mouth1.wav","null","audio-keyboard-response","374","2.1.0","512910","J=YES, F=NO","x75mrfqg6o","0","65","85","45","","","","","","","","","","","","","","","",""
"395","
          <p id=""word"" style=""font-size: 40px;"">spolial</p>
          <p style=""font-size: 16px;"">J = YES &nbsp;&nbsp;&nbsp; F = NO</p>
        ","j","html-keyboard-response","375","2.1.0","513305","J=YES, F=NO","x75mrfqg6o","0","65","85","45","","","","","","","","","spolial","mouth1","pseudoword","pseudoword","f","false","",""
"null","<p style=""font-size: 50px;"">+</p>","null","html-keyboard-response","376","2.1.0","513614","J=YES, F=NO","x75mrfqg6o","0","65","85","45","","","","","","","","","","","","","","","",""
"null","audio/beep-329314.mp3","null","audio-keyboard-response","377","2.1.0","515139","J=YES, F=NO","x75mrfqg6o","0","65","85","45","","","","","","","","","","","","","","","",""
"null","audio/key1.wav","null","audio-keyboard-response","378","2.1.0","515550","J=YES, F=NO","x75mrfqg6o","0","65","85","45","","","","","","","","","","","","","","","",""
"530","
          <p id=""word"" style=""font-size: 40px;"">sminsh</p>
          <p style=""font-size: 16px;"">J = YES &nbsp;&nbsp;&nbsp; F = NO</p>
        ","f","html-keyboard-response","379","2.1.0","516080","J=YES, F=NO","x75mrfqg6o","0","65","85","45","","","","","","","","","sminsh","key1","pseudoword","pseudoword","f","true","",""
"null","<p style=""font-size: 50px;"">+</p>","null","html-keyboard-response","380","2.1.0","516395","J=YES, F=NO","x75mrfqg6o","0","65","85","45","","","","","","","","","","","","","","","",""
"null","audio/beep-329314.mp3","null","audio-keyboard-response","381","2.1.0","517919","J=YES, F=NO","x75mrfqg6o","0","65","85","45","","","","","","","","","","","","","","","",""
"null","audio/beach1.wav","null","audio-keyboard-response","382","2.1.0","518550","J=YES, F=NO","x75mrfqg6o","0","65","85","45","","","","","","","","","","","","","","","",""
"363","
          <p id=""word"" style=""font-size: 40px;"">drive</p>
          <p style=""font-size: 16px;"">J = YES &nbsp;&nbsp;&nbsp; F = NO</p>
        ","j","html-keyboard-response","383","2.1.0","518913","J=YES, F=NO","x75mrfqg6o","0","65","85","45","","","","","","","","","drive","beach1","filler","filler","j","true","",""
"null","<p style=""font-size: 50px;"">+</p>","null","html-keyboard-response","384","2.1.0","519219","J=YES, F=NO","x75mrfqg6o","0","65","85","45","","","","","","","","","","","","","","","",""
"null","audio/beep-329314.mp3","null","audio-keyboard-response","385","2.1.0","520759","J=YES, F=NO","x75mrfqg6o","0","65","85","45","","","","","","","","","","","","","","","",""
"null","audio/life1.wav","null","audio-keyboard-response","386","2.1.0","521369","J=YES, F=NO","x75mrfqg6o","0","65","85","45","","","","","","","","","","","","","","","",""
"407","
          <p id=""word"" style=""font-size: 40px;"">flimch</p>
          <p style=""font-size: 16px;"">J = YES &nbsp;&nbsp;&nbsp; F = NO</p>
        ","j","html-keyboard-response","387","2.1.0","521777","J=YES, F=NO","x75mrfqg6o","0","65","85","45","","","","","","","","","flimch","life1","pseudoword","pseudoword","f","false","",""
"null","<p style=""font-size: 50px;"">+</p>","null","html-keyboard-response","388","2.1.0","522083","J=YES, F=NO","x75mrfqg6o","0","65","85","45","","","","","","","","","","","","","","","",""
"null","audio/beep-329314.mp3","null","audio-keyboard-response","389","2.1.0","523619","J=YES, F=NO","x75mrfqg6o","0","65","85","45","","","","","","","","","","","","","","","",""
"null","audio/breath.wav","null","audio-keyboard-response","390","2.1.0","524169","J=YES, F=NO","x75mrfqg6o","0","65","85","45","","","","","","","","","","","","","","","",""
"505","
          <p id=""word"" style=""font-size: 40px;"">twets</p>
          <p style=""font-size: 16px;"">J = YES &nbsp;&nbsp;&nbsp; F = NO</p>
