"rt","stimulus","response","trial_type","trial_index","plugin_version","time_elapsed","response_mapping","subject_id","list_index","lextale_score","lextale_word_score","lextale_nonword_score","success","timeout","failed_images","failed_audio","failed_video","task","isWord","isDummy","target","prime","prime_type","stimulus_type","correct_response","correct","section","question_order"
"21877","
    <div style=""max-width: 800px; margin: auto; text-align: left;"">
      <h2>STANFORD UNIVERSITY</h2>
      <h3>Research Information Sheet</h3>
      <p><strong>Protocol Director:</strong> Robert Hawkins<br>
      <strong>Protocol Title:</strong> Communication and social cognition in natural audiovisual contexts<br>
      <strong>IRB#:</strong> 77226</p>

      <p><strong>DESCRIPTION:</strong> You are invited to participate in a research study about language and communication. The purpose of the research is to understand how you interact and communicate with other people in naturalistic settings as a fluent English speaker. This research will be conducted through the Prolific platform, including participants from the US, UK, and Canada. If you decide to participate in this research, you will play a communication game in a group with one or more partners.</p>

      <p><strong>TIME INVOLVEMENT:</strong> The task will last the amount of time advertised on Prolific. You are free to withdraw from the study at any time.</p>

      <p><strong>RISKS AND BENEFITS:</strong> You may become frustrated if your partner gets distracted, or experience discomfort if other participants in your group send text that is inappropriate for the task. We ask you to please be respectful of other participants you might be interacting with to mitigate these risks. You may also experience discomfort when being asked to discuss or challenge emotionally salient political beliefs. Study data will be stored securely, in compliance with Stanford University standards, minimizing the risk of confidentiality breach. This study advances our scientific understanding of how people communicate and collaborate in naturalistic settings. This study may lead to further insights about what can go wrong in teamwork, suggest potential interventions to overcome these barriers, and help to develop assistive technologies that collaborate with human partners. We cannot and do not guarantee or promise that you will receive any benefits from this study.</p>

      <p><strong>PAYMENTS:</strong> You will receive payment in the amount advertised on Prolific. If you do not complete this study, you will receive prorated payment based on the time that you have spent. Additionally, you may be eligible for bonus payments as described in the instructions.</p>

      <p><strong>PARTICIPANT’S RIGHTS:</strong> If you have read this form and have decided to participate in this project, please understand your participation is voluntary and you have the right to withdraw your consent or discontinue participation at any time without penalty or loss of benefits to which you are otherwise entitled. The alternative is not to participate. You have the right to refuse to answer particular questions. The results of this research study may be presented at scientific or professional meetings or published in scientific journals. Your individual privacy will be maintained in all published and written data resulting from the study. In accordance with scientific norms, the data from this study may be used or shared with other researchers for future research (after removing personally identifying information) without additional consent from you.</p>

      <p><strong>CONTACT INFORMATION:</strong><br>
      Questions: If you have any questions, concerns or complaints about this research, its procedures, risks and benefits, contact the Protocol Director, Robert Hawkins (<a href=""mailto:rdhawkins@stanford.edu"">rdhawkins@stanford.edu</a>, 217-549-6923).<br>
      Independent Contact: If you are not satisfied with how this study is being conducted, or if you have any concerns, complaints, or general questions about the research or your rights as a participant, please contact the Stanford Institutional Review Board (IRB) to speak to someone independent of the research team at 650-723-2480 or toll free at 1-866-680-2906, or email at <a href=""mailto:irbnon-med@stanford.edu"">irbnon-med@stanford.edu</a>. You can also write to the Stanford IRB, Stanford University, 1705 El Camino Real, Palo Alto, CA 94306.</p>

      <p><strong>Please save or print a copy of this page for your records.</strong></p>
      <p>If you agree to participate in this research, click ""Continue"" below.</p>
    </div>
  ","0","html-button-response","0","2.1.0","21884","J=YES, F=NO","x8j70bprwe","1","81","83","80","","","","","","","","","","","","","","","",""
"70221","
    <div style=""max-width: 800px; margin: auto; text-align: left;"">
      <h2>Welcome!</h2>
      <p>Thank you for participating in this study. The experiment consists of three parts:</p>
      <ol>
        <li>An English vocabulary test</li>
        <li>A main task in which you will hear and see words, and decide whether the written word is a real English word</li>
        <li>A brief survey about your background</li>
      </ol>
      <p>Each part will be introduced before it begins.</p>
      <p>Please make sure you are in a quiet environment and can hear audio clearly for the final task.</p>
      <p style=""margin-top: 2em;"">Press any key to begin.</p>
    </div>
  "," ","html-keyboard-response","1","2.1.0","92107","J=YES, F=NO","x8j70bprwe","1","81","83","80","","","","","","","","","","","","","","","",""
"","","","preload","2","2.1.0","92415","J=YES, F=NO","x8j70bprwe","1","81","83","80","true","false","[]","[]","[]","","","","","","","","","","",""
"8406","
    <div style=""max-width: 800px; margin: auto; text-align: left;"">
      <h2>Part 1: Vocabulary Test</h2>
      <p>You will now complete the first part of the study: a short English vocabulary test.</p>
      <p>This test is called <strong>LexTALE</strong> and helps us get a general sense of your English proficiency.</p>
      <p style=""margin-top: 2em;"">Press any key to continue.</p>
    </div>
  "," ","html-keyboard-response","3","2.1.0","100821","J=YES, F=NO","x8j70bprwe","1","81","83","80","","","","","","","","","","","","","","","",""
"21638","
    <div style=""max-width: 800px; margin: auto; text-align: left;"">
      <h2>LexTALE Vocabulary Test</h2>
      <p>In this test, you will see a series of letter strings—one at a time.</p>
      <p>Your task is to decide whether each string is a real English word.</p>
      <p><strong>Key responses:</strong></p>
      <ul>
        <li><strong>J</strong> = YES (real English word)</li>
        <li><strong>F</strong> = NO (not a real English word)</li>
      </ul>
      <p>There is no time limit, but please try to be accurate.</p>
      <p style=""margin-top: 2em;"">Press any key to begin.</p>
    </div>
  "," ","html-keyboard-response","4","2.1.0","122460","J=YES, F=NO","x8j70bprwe","1","81","83","80","","","","","","","","","","","","","","","",""
"3097","
  <p style=""font-size: 40px;"">platery</p>
  <p style=""font-size: 16px;"">J = YES &nbsp;&nbsp;&nbsp; F = NO</p>
","j","html-keyboard-response","5","2.1.0","125557","J=YES, F=NO","x8j70bprwe","1","81","83","80","","","","","","lextale","false","true","","","","","","","",""
"1122","
  <p style=""font-size: 40px;"">denial</p>
  <p style=""font-size: 16px;"">J = YES &nbsp;&nbsp;&nbsp; F = NO</p>
","j","html-keyboard-response","6","2.1.0","126680","J=YES, F=NO","x8j70bprwe","1","81","83","80","","","","","","lextale","true","true","","","","","","","",""
"1635","
  <p style=""font-size: 40px;"">marrit</p>
  <p style=""font-size: 16px;"">J = YES &nbsp;&nbsp;&nbsp; F = NO</p>
","f","html-keyboard-response","7","2.1.0","128315","J=YES, F=NO","x8j70bprwe","1","81","83","80","","","","","","lextale","false","true","","","","","","","",""
"1019","
  <p style=""font-size: 40px;"">bottle</p>
  <p style=""font-size: 16px;"">J = YES &nbsp;&nbsp;&nbsp; F = NO</p>
","j","html-keyboard-response","8","2.1.0","129335","J=YES, F=NO","x8j70bprwe","1","81","83","80","","","","","","lextale","true","false","","","","","","","",""
"2556","
  <p style=""font-size: 40px;"">birst</p>
  <p style=""font-size: 16px;"">J = YES &nbsp;&nbsp;&nbsp; F = NO</p>
","f","html-keyboard-response","9","2.1.0","131893","J=YES, F=NO","x8j70bprwe","1","81","83","80","","","","","","lextale","false","false","","","","","","","",""
"1001","
  <p style=""font-size: 40px;"">envy</p>
  <p style=""font-size: 16px;"">J = YES &nbsp;&nbsp;&nbsp; F = NO</p>
","j","html-keyboard-response","10","2.1.0","132895","J=YES, F=NO","x8j70bprwe","1","81","83","80","","","","","","lextale","true","false","","","","","","","",""
"1581","
  <p style=""font-size: 40px;"">brang</p>
  <p style=""font-size: 16px;"">J = YES &nbsp;&nbsp;&nbsp; F = NO</p>
","f","html-keyboard-response","11","2.1.0","134476","J=YES, F=NO","x8j70bprwe","1","81","83","80","","","","","","lextale","false","false","","","","","","","",""
"1027","
  <p style=""font-size: 40px;"">huge</p>
  <p style=""font-size: 16px;"">J = YES &nbsp;&nbsp;&nbsp; F = NO</p>
","j","html-keyboard-response","12","2.1.0","135503","J=YES, F=NO","x8j70bprwe","1","81","83","80","","","","","","lextale","true","false","","","","","","","",""
"1920","
  <p style=""font-size: 40px;"">plove</p>
  <p style=""font-size: 16px;"">J = YES &nbsp;&nbsp;&nbsp; F = NO</p>
","f","html-keyboard-response","13","2.1.0","137422","J=YES, F=NO","x8j70bprwe","1","81","83","80","","","","","","lextale","false","false","","","","","","","",""
"1185","
  <p style=""font-size: 40px;"">border</p>
  <p style=""font-size: 16px;"">J = YES &nbsp;&nbsp;&nbsp; F = NO</p>
","j","html-keyboard-response","14","2.1.0","138609","J=YES, F=NO","x8j70bprwe","1","81","83","80","","","","","","lextale","true","false","","","","","","","",""
"2007","
  <p style=""font-size: 40px;"">flimsy</p>
  <p style=""font-size: 16px;"">J = YES &nbsp;&nbsp;&nbsp; F = NO</p>
","j","html-keyboard-response","15","2.1.0","140615","J=YES, F=NO","x8j70bprwe","1","81","83","80","","","","","","lextale","true","false","","","","","","","",""
"1122","
  <p style=""font-size: 40px;"">drain</p>
  <p style=""font-size: 16px;"">J = YES &nbsp;&nbsp;&nbsp; F = NO</p>
","j","html-keyboard-response","16","2.1.0","141738","J=YES, F=NO","x8j70bprwe","1","81","83","80","","","","","","lextale","true","false","","","","","","","",""
"1600","
  <p style=""font-size: 40px;"">twindle</p>
  <p style=""font-size: 16px;"">J = YES &nbsp;&nbsp;&nbsp; F = NO</p>
","j","html-keyboard-response","17","2.1.0","143339","J=YES, F=NO","x8j70bprwe","1","81","83","80","","","","","","lextale","false","false","","","","","","","",""
"1166","
  <p style=""font-size: 40px;"">propose</p>
  <p style=""font-size: 16px;"">J = YES &nbsp;&nbsp;&nbsp; F = NO</p>
","j","html-keyboard-response","18","2.1.0","144505","J=YES, F=NO","x8j70bprwe","1","81","83","80","","","","","","lextale","true","false","","","","","","","",""
"2035","
  <p style=""font-size: 40px;"">forlay</p>
  <p style=""font-size: 16px;"">J = YES &nbsp;&nbsp;&nbsp; F = NO</p>
","f","html-keyboard-response","19","2.1.0","146541","J=YES, F=NO","x8j70bprwe","1","81","83","80","","","","","","lextale","false","false","","","","","","","",""
"1894","
  <p style=""font-size: 40px;"">tenant</p>
  <p style=""font-size: 16px;"">J = YES &nbsp;&nbsp;&nbsp; F = NO</p>
","j","html-keyboard-response","20","2.1.0","148434","J=YES, F=NO","x8j70bprwe","1","81","83","80","","","","","","lextale","true","false","","","","","","","",""
"994","
  <p style=""font-size: 40px;"">strain</p>
  <p style=""font-size: 16px;"">J = YES &nbsp;&nbsp;&nbsp; F = NO</p>
","j","html-keyboard-response","21","2.1.0","149429","J=YES, F=NO","x8j70bprwe","1","81","83","80","","","","","","lextale","true","false","","","","","","","",""
"2160","
  <p style=""font-size: 40px;"">holster</p>
  <p style=""font-size: 16px;"">J = YES &nbsp;&nbsp;&nbsp; F = NO</p>
","j","html-keyboard-response","22","2.1.0","151590","J=YES, F=NO","x8j70bprwe","1","81","83","80","","","","","","lextale","true","false","","","","","","","",""
"1454","
  <p style=""font-size: 40px;"">hinder</p>
  <p style=""font-size: 16px;"">J = YES &nbsp;&nbsp;&nbsp; F = NO</p>
","j","html-keyboard-response","23","2.1.0","153045","J=YES, F=NO","x8j70bprwe","1","81","83","80","","","","","","lextale","true","false","","","","","","","",""
"1808","
  <p style=""font-size: 40px;"">swindle</p>
  <p style=""font-size: 16px;"">J = YES &nbsp;&nbsp;&nbsp; F = NO</p>
","j","html-keyboard-response","24","2.1.0","154854","J=YES, F=NO","x8j70bprwe","1","81","83","80","","","","","","lextale","true","false","","","","","","","",""
"1922","
  <p style=""font-size: 40px;"">nuder</p>
  <p style=""font-size: 16px;"">J = YES &nbsp;&nbsp;&nbsp; F = NO</p>
","f","html-keyboard-response","25","2.1.0","156774","J=YES, F=NO","x8j70bprwe","1","81","83","80","","","","","","lextale","false","false","","","","","","","",""
"4882","
  <p style=""font-size: 40px;"">pillow</p>
  <p style=""font-size: 16px;"">J = YES &nbsp;&nbsp;&nbsp; F = NO</p>
","j","html-keyboard-response","26","2.1.0","161657","J=YES, F=NO","x8j70bprwe","1","81","83","80","","","","","","lextale","true","false","","","","","","","",""
"1553","
  <p style=""font-size: 40px;"">shumble</p>
  <p style=""font-size: 16px;"">J = YES &nbsp;&nbsp;&nbsp; F = NO</p>
","f","html-keyboard-response","27","2.1.0","163210","J=YES, F=NO","x8j70bprwe","1","81","83","80","","","","","","lextale","false","false","","","","","","","",""
"919","
  <p style=""font-size: 40px;"">thirst</p>
  <p style=""font-size: 16px;"">J = YES &nbsp;&nbsp;&nbsp; F = NO</p>
","j","html-keyboard-response","28","2.1.0","164130","J=YES, F=NO","x8j70bprwe","1","81","83","80","","","","","","lextale","true","false","","","","","","","",""
"1831","
  <p style=""font-size: 40px;"">unsail</p>
  <p style=""font-size: 16px;"">J = YES &nbsp;&nbsp;&nbsp; F = NO</p>
","f","html-keyboard-response","29","2.1.0","165960","J=YES, F=NO","x8j70bprwe","1","81","83","80","","","","","","lextale","false","false","","","","","","","",""
"1260","
  <p style=""font-size: 40px;"">rifle</p>
  <p style=""font-size: 16px;"">J = YES &nbsp;&nbsp;&nbsp; F = NO</p>
","j","html-keyboard-response","30","2.1.0","167221","J=YES, F=NO","x8j70bprwe","1","81","83","80","","","","","","lextale","true","false","","","","","","","",""
"1514","
  <p style=""font-size: 40px;"">mush</p>
  <p style=""font-size: 16px;"">J = YES &nbsp;&nbsp;&nbsp; F = NO</p>
","j","html-keyboard-response","31","2.1.0","168735","J=YES, F=NO","x8j70bprwe","1","81","83","80","","","","","","lextale","false","false","","","","","","","",""
"6387","
  <p style=""font-size: 40px;"">drench</p>
  <p style=""font-size: 16px;"">J = YES &nbsp;&nbsp;&nbsp; F = NO</p>
","j","html-keyboard-response","32","2.1.0","175122","J=YES, F=NO","x8j70bprwe","1","81","83","80","","","","","","lextale","true","false","","","","","","","",""
"1222","
  <p style=""font-size: 40px;"">snirt</p>
  <p style=""font-size: 16px;"">J = YES &nbsp;&nbsp;&nbsp; F = NO</p>
","f","html-keyboard-response","33","2.1.0","176345","J=YES, F=NO","x8j70bprwe","1","81","83","80","","","","","","lextale","false","false","","","","","","","",""
"1109","
  <p style=""font-size: 40px;"">bitter</p>
  <p style=""font-size: 16px;"">J = YES &nbsp;&nbsp;&nbsp; F = NO</p>
","j","html-keyboard-response","34","2.1.0","177455","J=YES, F=NO","x8j70bprwe","1","81","83","80","","","","","","lextale","true","false","","","","","","","",""
"1205","
  <p style=""font-size: 40px;"">pliff</p>
  <p style=""font-size: 16px;"">J = YES &nbsp;&nbsp;&nbsp; F = NO</p>
","f","html-keyboard-response","35","2.1.0","178660","J=YES, F=NO","x8j70bprwe","1","81","83","80","","","","","","lextale","false","false","","","","","","","",""
"1175","
  <p style=""font-size: 40px;"">tablet</p>
  <p style=""font-size: 16px;"">J = YES &nbsp;&nbsp;&nbsp; F = NO</p>
","j","html-keyboard-response","36","2.1.0","179836","J=YES, F=NO","x8j70bprwe","1","81","83","80","","","","","","lextale","true","false","","","","","","","",""
"1489","
  <p style=""font-size: 40px;"">glimmer</p>
  <p style=""font-size: 16px;"">J = YES &nbsp;&nbsp;&nbsp; F = NO</p>
","j","html-keyboard-response","37","2.1.0","181325","J=YES, F=NO","x8j70bprwe","1","81","83","80","","","","","","lextale","true","false","","","","","","","",""
"2464","
  <p style=""font-size: 40px;"">slink</p>
  <p style=""font-size: 16px;"">J = YES &nbsp;&nbsp;&nbsp; F = NO</p>
","f","html-keyboard-response","38","2.1.0","183789","J=YES, F=NO","x8j70bprwe","1","81","83","80","","","","","","lextale","true","false","","","","","","","",""
"1269","
  <p style=""font-size: 40px;"">clever</p>
  <p style=""font-size: 16px;"">J = YES &nbsp;&nbsp;&nbsp; F = NO</p>
","j","html-keyboard-response","39","2.1.0","185059","J=YES, F=NO","x8j70bprwe","1","81","83","80","","","","","","lextale","true","false","","","","","","","",""
"2527","
  <p style=""font-size: 40px;"">grum</p>
  <p style=""font-size: 16px;"">J = YES &nbsp;&nbsp;&nbsp; F = NO</p>
","f","html-keyboard-response","40","2.1.0","187588","J=YES, F=NO","x8j70bprwe","1","81","83","80","","","","","","lextale","false","false","","","","","","","",""
"1385","
  <p style=""font-size: 40px;"">string</p>
  <p style=""font-size: 16px;"">J = YES &nbsp;&nbsp;&nbsp; F = NO</p>
","j","html-keyboard-response","41","2.1.0","188973","J=YES, F=NO","x8j70bprwe","1","81","83","80","","","","","","lextale","true","false","","","","","","","",""
"1345","
  <p style=""font-size: 40px;"">plim</p>
  <p style=""font-size: 16px;"">J = YES &nbsp;&nbsp;&nbsp; F = NO</p>
","f","html-keyboard-response","42","2.1.0","190319","J=YES, F=NO","x8j70bprwe","1","81","83","80","","","","","","lextale","false","false","","","","","","","",""
"1062","
  <p style=""font-size: 40px;"">cable</p>
  <p style=""font-size: 16px;"">J = YES &nbsp;&nbsp;&nbsp; F = NO</p>
","j","html-keyboard-response","43","2.1.0","191382","J=YES, F=NO","x8j70bprwe","1","81","83","80","","","","","","lextale","true","false","","","","","","","",""
"2231","
  <p style=""font-size: 40px;"">shrivel</p>
  <p style=""font-size: 16px;"">J = YES &nbsp;&nbsp;&nbsp; F = NO</p>
","j","html-keyboard-response","44","2.1.0","193613","J=YES, F=NO","x8j70bprwe","1","81","83","80","","","","","","lextale","true","false","","","","","","","",""
"1165","
  <p style=""font-size: 40px;"">tarnish</p>
  <p style=""font-size: 16px;"">J = YES &nbsp;&nbsp;&nbsp; F = NO</p>
","j","html-keyboard-response","45","2.1.0","194778","J=YES, F=NO","x8j70bprwe","1","81","83","80","","","","","","lextale","true","false","","","","","","","",""
"1585","
  <p style=""font-size: 40px;"">blim</p>
  <p style=""font-size: 16px;"">J = YES &nbsp;&nbsp;&nbsp; F = NO</p>
","f","html-keyboard-response","46","2.1.0","196365","J=YES, F=NO","x8j70bprwe","1","81","83","80","","","","","","lextale","false","false","","","","","","","",""
"1600","
  <p style=""font-size: 40px;"">stifle</p>
  <p style=""font-size: 16px;"">J = YES &nbsp;&nbsp;&nbsp; F = NO</p>
","j","html-keyboard-response","47","2.1.0","197965","J=YES, F=NO","x8j70bprwe","1","81","83","80","","","","","","lextale","true","false","","","","","","","",""
"1247","
  <p style=""font-size: 40px;"">bint</p>
  <p style=""font-size: 16px;"">J = YES &nbsp;&nbsp;&nbsp; F = NO</p>
","f","html-keyboard-response","48","2.1.0","199213","J=YES, F=NO","x8j70bprwe","1","81","83","80","","","","","","lextale","false","false","","","","","","","",""
"3826","
  <p style=""font-size: 40px;"">purple</p>
  <p style=""font-size: 16px;"">J = YES &nbsp;&nbsp;&nbsp; F = NO</p>
","j","html-keyboard-response","49","2.1.0","203039","J=YES, F=NO","x8j70bprwe","1","81","83","80","","","","","","lextale","true","false","","","","","","","",""
"1227","
  <p style=""font-size: 40px;"">wriggle</p>
  <p style=""font-size: 16px;"">J = YES &nbsp;&nbsp;&nbsp; F = NO</p>
","j","html-keyboard-response","50","2.1.0","204266","J=YES, F=NO","x8j70bprwe","1","81","83","80","","","","","","lextale","true","false","","","","","","","",""
"1098","
  <p style=""font-size: 40px;"">mangle</p>
  <p style=""font-size: 16px;"">J = YES &nbsp;&nbsp;&nbsp; F = NO</p>
","j","html-keyboard-response","51","2.1.0","205366","J=YES, F=NO","x8j70bprwe","1","81","83","80","","","","","","lextale","true","false","","","","","","","",""
"1328","
  <p style=""font-size: 40px;"">shramp</p>
  <p style=""font-size: 16px;"">J = YES &nbsp;&nbsp;&nbsp; F = NO</p>
","f","html-keyboard-response","52","2.1.0","206694","J=YES, F=NO","x8j70bprwe","1","81","83","80","","","","","","lextale","false","false","","","","","","","",""
"962","
  <p style=""font-size: 40px;"">flirt</p>
  <p style=""font-size: 16px;"">J = YES &nbsp;&nbsp;&nbsp; F = NO</p>
","j","html-keyboard-response","53","2.1.0","207655","J=YES, F=NO","x8j70bprwe","1","81","83","80","","","","","","lextale","true","false","","","","","","","",""
"1077","
  <p style=""font-size: 40px;"">frip</p>
  <p style=""font-size: 16px;"">J = YES &nbsp;&nbsp;&nbsp; F = NO</p>
","f","html-keyboard-response","54","2.1.0","208734","J=YES, F=NO","x8j70bprwe","1","81","83","80","","","","","","lextale","false","false","","","","","","","",""
"1525","
  <p style=""font-size: 40px;"">tangle</p>
  <p style=""font-size: 16px;"">J = YES &nbsp;&nbsp;&nbsp; F = NO</p>
","j","html-keyboard-response","55","2.1.0","210257","J=YES, F=NO","x8j70bprwe","1","81","83","80","","","","","","lextale","true","false","","","","","","","",""
"1136","
  <p style=""font-size: 40px;"">crumble</p>
  <p style=""font-size: 16px;"">J = YES &nbsp;&nbsp;&nbsp; F = NO</p>
","j","html-keyboard-response","56","2.1.0","211394","J=YES, F=NO","x8j70bprwe","1","81","83","80","","","","","","lextale","true","false","","","","","","","",""
"1180","
  <p style=""font-size: 40px;"">wrinkle</p>
  <p style=""font-size: 16px;"">J = YES &nbsp;&nbsp;&nbsp; F = NO</p>
","j","html-keyboard-response","57","2.1.0","212574","J=YES, F=NO","x8j70bprwe","1","81","83","80","","","","","","lextale","true","false","","","","","","","",""
"1959","
  <p style=""font-size: 40px;"">slumb</p>
  <p style=""font-size: 16px;"">J = YES &nbsp;&nbsp;&nbsp; F = NO</p>
","f","html-keyboard-response","58","2.1.0","214534","J=YES, F=NO","x8j70bprwe","1","81","83","80","","","","","","lextale","false","false","","","","","","","",""
"820","
  <p style=""font-size: 40px;"">jungle</p>
  <p style=""font-size: 16px;"">J = YES &nbsp;&nbsp;&nbsp; F = NO</p>
","j","html-keyboard-response","59","2.1.0","215355","J=YES, F=NO","x8j70bprwe","1","81","83","80","","","","","","lextale","true","false","","","","","","","",""
"1387","
  <p style=""font-size: 40px;"">frolick</p>
  <p style=""font-size: 16px;"">J = YES &nbsp;&nbsp;&nbsp; F = NO</p>
","j","html-keyboard-response","60","2.1.0","216744","J=YES, F=NO","x8j70bprwe","1","81","83","80","","","","","","lextale","false","false","","","","","","","",""
"7141","
      <h2>LexTALE Test Completed</h2>
      <p>Your LexTALE vocabulary score is: <strong>81%</strong></p>
      <p>Press any key to continue.</p>
    ","Enter","html-keyboard-response","61","2.1.0","223887","J=YES, F=NO","x8j70bprwe","1","81","83","80","","","","","","","","","","","","","","","",""
"6438","
    <div style=""max-width: 800px; margin: auto; text-align: left;"">
      <h2>Break Time</h2>
      <p>You have completed the first part of the study.</p>
      <p>You may take a short <strong>30-second break</strong> before continuing.</p>
      <p>When you’re ready, press any key to continue to the final task.</p>
    </div>
  "," ","html-keyboard-response","62","2.1.0","230325","J=YES, F=NO","x8j70bprwe","1","81","83","80","","","","","","","","","","","","","","","",""
"625527","
    <div style=""max-width: 800px; margin: auto; text-align: left;"">
      <h2>Part 2: Lexical Decision Task</h2>
      <p>You will now begin the second part of the study.</p>
      <p>Each trial will follow this sequence:</p>
      <ul>
        <li>A fixation cross (+) appears at the center of the screen.</li>
        <li>You will hear a short beep followed by a spoken word.</li>
        <li>A written word will appear briefly on the screen.</li>
      </ul>
      <p>Your task is to judge whether the <strong>written word</strong> is a real English word.</p>
      <p style=""margin-top: 1em;""><strong>Key responses:</strong></p>
      <ul>
        <li><strong>J</strong> = YES (real English word)</li>
        <li><strong>F</strong> = NO (not a real English word)</li>
      </ul>
      <p>Please respond as quickly and accurately as you can.</p>
      <p style=""margin-top: 2em;"">Press any key to continue.</p>
    </div>
  "," ","html-keyboard-response","63","2.1.0","855852","J=YES, F=NO","x8j70bprwe","1","81","83","80","","","","","","","","","","","","","","","",""
"14206","
    <div style=""max-width: 800px; margin: auto; text-align: left;"">
      <h2>Before You Begin</h2>
      <p>Make sure your sound is turned on.</p>
      <p>You will hear audio during each trial, but your decision should be based only on the <strong>written word</strong> you see on the screen.</p>
      <p><strong>Reminder:</strong></p>
      <ul>
        <li><strong>J</strong> = YES (real English word)</li>
        <li><strong>F</strong> = NO (not a real English word)</li>
      </ul>
      <p style=""margin-top: 2em;"">Press any key when you are ready to begin.</p>
    </div>
  "," ","html-keyboard-response","64","2.1.0","870059","J=YES, F=NO","x8j70bprwe","1","81","83","80","","","","","","","","","","","","","","","",""
"5388","
    <div style=""max-width: 800px; margin: auto; text-align: left;"">
      <h2>Part 2: Practice Trials</h2>
      <p>You will now complete a few <strong>practice trials</strong> to get familiar with the task.</p>
      <p>These trials are <strong>not scored</strong> and are only to help you get used to the format.</p>
      <p style=""margin-top: 2em;"">Press any key to begin.</p>
    </div>
  "," ","html-keyboard-response","65","2.1.0","875447","J=YES, F=NO","x8j70bprwe","1","81","83","80","","","","","","","","","","","","","","","",""
"2750","<p>Starting practice block 1 of 2. Press any key to continue.</p>"," ","html-keyboard-response","66","2.1.0","878197","J=YES, F=NO","x8j70bprwe","1","81","83","80","","","","","","","","","","","","","","","",""
"null","<p style=""font-size: 50px;"">+</p>","null","html-keyboard-response","67","2.1.0","878508","J=YES, F=NO","x8j70bprwe","1","81","83","80","","","","","","","","","","","","","","","",""
"null","audio/beep-329314.mp3","null","audio-keyboard-response","68","2.1.0","880046","J=YES, F=NO","x8j70bprwe","1","81","83","80","","","","","","","","","","","","","","","",""
"null","audio/theory1.wav","null","audio-keyboard-response","69","2.1.0","880845","J=YES, F=NO","x8j70bprwe","1","81","83","80","","","","","","","","","","","","","","","",""
"null","
          <p id=""word"" style=""font-size: 40px;"">scolve</p>
          <p style=""font-size: 16px;"">J = YES &nbsp;&nbsp;&nbsp; F = NO</p>
        ","null","html-keyboard-response","70","2.1.0","882496","J=YES, F=NO","x8j70bprwe","1","81","83","80","","","","","","","","","scolve","theory1","pseudoword","pseudoword","f","false","",""
"null","<p style=""font-size: 50px;"">+</p>","null","html-keyboard-response","71","2.1.0","882809","J=YES, F=NO","x8j70bprwe","1","81","83","80","","","","","","","","","","","","","","","",""
"null","audio/beep-329314.mp3","null","audio-keyboard-response","72","2.1.0","884342","J=YES, F=NO","x8j70bprwe","1","81","83","80","","","","","","","","","","","","","","","",""
"null","audio/bridge.wav","null","audio-keyboard-response","73","2.1.0","884903","J=YES, F=NO","x8j70bprwe","1","81","83","80","","","","","","","","","","","","","","","",""
"945","
          <p id=""word"" style=""font-size: 40px;"">crack</p>
          <p style=""font-size: 16px;"">J = YES &nbsp;&nbsp;&nbsp; F = NO</p>
        ","j","html-keyboard-response","74","2.1.0","885848","J=YES, F=NO","x8j70bprwe","1","81","83","80","","","","","","","","","crack","bridge","filler","filler","j","true","",""
"null","<p style=""font-size: 50px;"">+</p>","null","html-keyboard-response","75","2.1.0","886151","J=YES, F=NO","x8j70bprwe","1","81","83","80","","","","","","","","","","","","","","","",""
"null","audio/beep-329314.mp3","null","audio-keyboard-response","76","2.1.0","887713","J=YES, F=NO","x8j70bprwe","1","81","83","80","","","","","","","","","","","","","","","",""
"null","audio/pine.wav","null","audio-keyboard-response","77","2.1.0","888224","J=YES, F=NO","x8j70bprwe","1","81","83","80","","","","","","","","","","","","","","","",""
"985","
          <p id=""word"" style=""font-size: 40px;"">crebble</p>
          <p style=""font-size: 16px;"">J = YES &nbsp;&nbsp;&nbsp; F = NO</p>
        ","f","html-keyboard-response","78","2.1.0","889209","J=YES, F=NO","x8j70bprwe","1","81","83","80","","","","","","","","","crebble","pine","pseudoword","pseudoword","f","true","",""
"null","<p style=""font-size: 50px;"">+</p>","null","html-keyboard-response","79","2.1.0","889518","J=YES, F=NO","x8j70bprwe","1","81","83","80","","","","","","","","","","","","","","","",""
"null","audio/beep-329314.mp3","null","audio-keyboard-response","80","2.1.0","891041","J=YES, F=NO","x8j70bprwe","1","81","83","80","","","","","","","","","","","","","","","",""
"null","audio/pattern.wav","null","audio-keyboard-response","81","2.1.0","891591","J=YES, F=NO","x8j70bprwe","1","81","83","80","","","","","","","","","","","","","","","",""
"809","
          <p id=""word"" style=""font-size: 40px;"">tug</p>
          <p style=""font-size: 16px;"">J = YES &nbsp;&nbsp;&nbsp; F = NO</p>
        ","j","html-keyboard-response","82","2.1.0","892400","J=YES, F=NO","x8j70bprwe","1","81","83","80","","","","","","","","","tug","pattern","filler","filler","j","true","",""
"null","<p style=""font-size: 50px;"">+</p>","null","html-keyboard-response","83","2.1.0","892702","J=YES, F=NO","x8j70bprwe","1","81","83","80","","","","","","","","","","","","","","","",""
"null","audio/beep-329314.mp3","null","audio-keyboard-response","84","2.1.0","894257","J=YES, F=NO","x8j70bprwe","1","81","83","80","","","","","","","","","","","","","","","",""
"null","audio/novel.wav","null","audio-keyboard-response","85","2.1.0","894806","J=YES, F=NO","x8j70bprwe","1","81","83","80","","","","","","","","","","","","","","","",""
"656","
          <p id=""word"" style=""font-size: 40px;"">type</p>
          <p style=""font-size: 16px;"">J = YES &nbsp;&nbsp;&nbsp; F = NO</p>
        ","j","html-keyboard-response","86","2.1.0","895463","J=YES, F=NO","x8j70bprwe","1","81","83","80","","","","","","","","","type","novel","filler","filler","j","true","",""
"null","<p style=""font-size: 50px;"">+</p>","null","html-keyboard-response","87","2.1.0","895769","J=YES, F=NO","x8j70bprwe","1","81","83","80","","","","","","","","","","","","","","","",""
"null","audio/beep-329314.mp3","null","audio-keyboard-response","88","2.1.0","897322","J=YES, F=NO","x8j70bprwe","1","81","83","80","","","","","","","","","","","","","","","",""
"null","audio/dome.wav","null","audio-keyboard-response","89","2.1.0","897813","J=YES, F=NO","x8j70bprwe","1","81","83","80","","","","","","","","","","","","","","","",""
"1156","
          <p id=""word"" style=""font-size: 40px;"">scrupliness</p>
          <p style=""font-size: 16px;"">J = YES &nbsp;&nbsp;&nbsp; F = NO</p>
        ","j","html-keyboard-response","90","2.1.0","898969","J=YES, F=NO","x8j70bprwe","1","81","83","80","","","","","","","","","scrupliness","dome","pseudoword","pseudoword","f","false","",""
"null","<p style=""font-size: 50px;"">+</p>","null","html-keyboard-response","91","2.1.0","899279","J=YES, F=NO","x8j70bprwe","1","81","83","80","","","","","","","","","","","","","","","",""
"null","audio/beep-329314.mp3","null","audio-keyboard-response","92","2.1.0","900842","J=YES, F=NO","x8j70bprwe","1","81","83","80","","","","","","","","","","","","","","","",""
"null","audio/roof1.wav","null","audio-keyboard-response","93","2.1.0","901441","J=YES, F=NO","x8j70bprwe","1","81","83","80","","","","","","","","","","","","","","","",""
"823","
          <p id=""word"" style=""font-size: 40px;"">wronb</p>
          <p style=""font-size: 16px;"">J = YES &nbsp;&nbsp;&nbsp; F = NO</p>
        ","f","html-keyboard-response","94","2.1.0","902265","J=YES, F=NO","x8j70bprwe","1","81","83","80","","","","","","","","","wronb","roof1","pseudoword","pseudoword","f","true","",""
"null","<p style=""font-size: 50px;"">+</p>","null","html-keyboard-response","95","2.1.0","902572","J=YES, F=NO","x8j70bprwe","1","81","83","80","","","","","","","","","","","","","","","",""
"null","audio/beep-329314.mp3","null","audio-keyboard-response","96","2.1.0","904080","J=YES, F=NO","x8j70bprwe","1","81","83","80","","","","","","","","","","","","","","","",""
"null","audio/terrain.wav","null","audio-keyboard-response","97","2.1.0","904631","J=YES, F=NO","x8j70bprwe","1","81","83","80","","","","","","","","","","","","","","","",""
"639","
          <p id=""word"" style=""font-size: 40px;"">twist</p>
          <p style=""font-size: 16px;"">J = YES &nbsp;&nbsp;&nbsp; F = NO</p>
        ","j","html-keyboard-response","98","2.1.0","905270","J=YES, F=NO","x8j70bprwe","1","81","83","80","","","","","","","","","twist","terrain","filler","filler","j","true","",""
"null","<p style=""font-size: 50px;"">+</p>","null","html-keyboard-response","99","2.1.0","905579","J=YES, F=NO","x8j70bprwe","1","81","83","80","","","","","","","","","","","","","","","",""
"null","audio/beep-329314.mp3","null","audio-keyboard-response","100","2.1.0","907121","J=YES, F=NO","x8j70bprwe","1","81","83","80","","","","","","","","","","","","","","","",""
"null","audio/battle1.wav","null","audio-keyboard-response","101","2.1.0","907598","J=YES, F=NO","x8j70bprwe","1","81","83","80","","","","","","","","","","","","","","","",""
"836","
          <p id=""word"" style=""font-size: 40px;"">boil</p>
          <p style=""font-size: 16px;"">J = YES &nbsp;&nbsp;&nbsp; F = NO</p>
        ","j","html-keyboard-response","102","2.1.0","908435","J=YES, F=NO","x8j70bprwe","1","81","83","80","","","","","","","","","boil","battle1","filler","filler","j","true","",""
"null","<p style=""font-size: 50px;"">+</p>","null","html-keyboard-response","103","2.1.0","908737","J=YES, F=NO","x8j70bprwe","1","81","83","80","","","","","","","","","","","","","","","",""
"null","audio/beep-329314.mp3","null","audio-keyboard-response","104","2.1.0","910270","J=YES, F=NO","x8j70bprwe","1","81","83","80","","","","","","","","","","","","","","","",""
"null","audio/planet1.wav","null","audio-keyboard-response","105","2.1.0","910880","J=YES, F=NO","x8j70bprwe","1","81","83","80","","","","","","","","","","","","","","","",""
"843","
          <p id=""word"" style=""font-size: 40px;"">cratched</p>
          <p style=""font-size: 16px;"">J = YES &nbsp;&nbsp;&nbsp; F = NO</p>
        ","j","html-keyboard-response","106","2.1.0","911723","J=YES, F=NO","x8j70bprwe","1","81","83","80","","","","","","","","","cratched","planet1","pseudoword","pseudoword","f","false","",""
"null","<p style=""font-size: 50px;"">+</p>","null","html-keyboard-response","107","2.1.0","912027","J=YES, F=NO","x8j70bprwe","1","81","83","80","","","","","","","","","","","","","","","",""
"null","audio/beep-329314.mp3","null","audio-keyboard-response","108","2.1.0","913590","J=YES, F=NO","x8j70bprwe","1","81","83","80","","","","","","","","","","","","","","","",""
"null","audio/arm.wav","null","audio-keyboard-response","109","2.1.0","914099","J=YES, F=NO","x8j70bprwe","1","81","83","80","","","","","","","","","","","","","","","",""
"689","
          <p id=""word"" style=""font-size: 40px;"">pigne</p>
          <p style=""font-size: 16px;"">J = YES &nbsp;&nbsp;&nbsp; F = NO</p>
        ","f","html-keyboard-response","110","2.1.0","914788","J=YES, F=NO","x8j70bprwe","1","81","83","80","","","","","","","","","pigne","arm","pseudoword","pseudoword","f","true","",""
"null","<p style=""font-size: 50px;"">+</p>","null","html-keyboard-response","111","2.1.0","915107","J=YES, F=NO","x8j70bprwe","1","81","83","80","","","","","","","","","","","","","","","",""
"null","audio/beep-329314.mp3","null","audio-keyboard-response","112","2.1.0","916639","J=YES, F=NO","x8j70bprwe","1","81","83","80","","","","","","","","","","","","","","","",""
"null","audio/ankle1.wav","null","audio-keyboard-response","113","2.1.0","917201","J=YES, F=NO","x8j70bprwe","1","81","83","80","","","","","","","","","","","","","","","",""
"831","
          <p id=""word"" style=""font-size: 40px;"">switm</p>
          <p style=""font-size: 16px;"">J = YES &nbsp;&nbsp;&nbsp; F = NO</p>
        ","f","html-keyboard-response","114","2.1.0","918032","J=YES, F=NO","x8j70bprwe","1","81","83","80","","","","","","","","","switm","ankle1","pseudoword","pseudoword","f","true","",""
"2148","<p>Starting practice block 2 of 2. Press any key to continue.</p>"," ","html-keyboard-response","115","2.1.0","920180","J=YES, F=NO","x8j70bprwe","1","81","83","80","","","","","","","","","","","","","","","",""
"null","<p style=""font-size: 50px;"">+</p>","null","html-keyboard-response","116","2.1.0","920497","J=YES, F=NO","x8j70bprwe","1","81","83","80","","","","","","","","","","","","","","","",""
"null","audio/beep-329314.mp3","null","audio-keyboard-response","117","2.1.0","922020","J=YES, F=NO","x8j70bprwe","1","81","83","80","","","","","","","","","","","","","","","",""
"null","audio/flaw.wav","null","audio-keyboard-response","118","2.1.0","922701","J=YES, F=NO","x8j70bprwe","1","81","83","80","","","","","","","","","","","","","","","",""
"618","
          <p id=""word"" style=""font-size: 40px;"">thwool</p>
          <p style=""font-size: 16px;"">J = YES &nbsp;&nbsp;&nbsp; F = NO</p>
        ","f","html-keyboard-response","119","2.1.0","923319","J=YES, F=NO","x8j70bprwe","1","81","83","80","","","","","","","","","thwool","flaw","pseudoword","pseudoword","f","true","",""
"null","<p style=""font-size: 50px;"">+</p>","null","html-keyboard-response","120","2.1.0","923631","J=YES, F=NO","x8j70bprwe","1","81","83","80","","","","","","","","","","","","","","","",""
"null","audio/beep-329314.mp3","null","audio-keyboard-response","121","2.1.0","925194","J=YES, F=NO","x8j70bprwe","1","81","83","80","","","","","","","","","","","","","","","",""
"null","audio/ankle1.wav","null","audio-keyboard-response","122","2.1.0","925705","J=YES, F=NO","x8j70bprwe","1","81","83","80","","","","","","","","","","","","","","","",""
"785","
          <p id=""word"" style=""font-size: 40px;"">kick</p>
          <p style=""font-size: 16px;"">J = YES &nbsp;&nbsp;&nbsp; F = NO</p>
        ","j","html-keyboard-response","123","2.1.0","926490","J=YES, F=NO","x8j70bprwe","1","81","83","80","","","","","","","","","kick","ankle1","filler","filler","j","true","",""
"null","<p style=""font-size: 50px;"">+</p>","null","html-keyboard-response","124","2.1.0","926795","J=YES, F=NO","x8j70bprwe","1","81","83","80","","","","","","","","","","","","","","","",""
"null","audio/beep-329314.mp3","null","audio-keyboard-response","125","2.1.0","928359","J=YES, F=NO","x8j70bprwe","1","81","83","80","","","","","","","","","","","","","","","",""
"null","audio/camera1.wav","null","audio-keyboard-response","126","2.1.0","928909","J=YES, F=NO","x8j70bprwe","1","81","83","80","","","","","","","","","","","","","","","",""
"813","
          <p id=""word"" style=""font-size: 40px;"">stir</p>
          <p style=""font-size: 16px;"">J = YES &nbsp;&nbsp;&nbsp; F = NO</p>
        ","f","html-keyboard-response","127","2.1.0","929721","J=YES, F=NO","x8j70bprwe","1","81","83","80","","","","","","","","","stir","camera1","filler","filler","j","false","",""
"null","<p style=""font-size: 50px;"">+</p>","null","html-keyboard-response","128","2.1.0","930029","J=YES, F=NO","x8j70bprwe","1","81","83","80","","","","","","","","","","","","","","","",""
"null","audio/beep-329314.mp3","null","audio-keyboard-response","129","2.1.0","931581","J=YES, F=NO","x8j70bprwe","1","81","83","80","","","","","","","","","","","","","","","",""
"null","audio/van1.wav","null","audio-keyboard-response","130","2.1.0","932131","J=YES, F=NO","x8j70bprwe","1","81","83","80","","","","","","","","","","","","","","","",""
"792","
          <p id=""word"" style=""font-size: 40px;"">push</p>
          <p style=""font-size: 16px;"">J = YES &nbsp;&nbsp;&nbsp; F = NO</p>
        ","j","html-keyboard-response","131","2.1.0","932925","J=YES, F=NO","x8j70bprwe","1","81","83","80","","","","","","","","","push","van1","filler","filler","j","true","",""
"null","<p style=""font-size: 50px;"">+</p>","null","html-keyboard-response","132","2.1.0","933235","J=YES, F=NO","x8j70bprwe","1","81","83","80","","","","","","","","","","","","","","","",""
"null","audio/beep-329314.mp3","null","audio-keyboard-response","133","2.1.0","934778","J=YES, F=NO","x8j70bprwe","1","81","83","80","","","","","","","","","","","","","","","",""
"null","audio/cancer1.wav","null","audio-keyboard-response","134","2.1.0","935313","J=YES, F=NO","x8j70bprwe","1","81","83","80","","","","","","","","","","","","","","","",""
"560","
          <p id=""word"" style=""font-size: 40px;"">draw</p>
          <p style=""font-size: 16px;"">J = YES &nbsp;&nbsp;&nbsp; F = NO</p>
        ","j","html-keyboard-response","135","2.1.0","935873","J=YES, F=NO","x8j70bprwe","1","81","83","80","","","","","","","","","draw","cancer1","filler","filler","j","true","",""
"null","<p style=""font-size: 50px;"">+</p>","null","html-keyboard-response","136","2.1.0","936178","J=YES, F=NO","x8j70bprwe","1","81","83","80","","","","","","","","","","","","","","","",""
"null","audio/beep-329314.mp3","null","audio-keyboard-response","137","2.1.0","937738","J=YES, F=NO","x8j70bprwe","1","81","83","80","","","","","","","","","","","","","","","",""
"null","audio/fence.wav","null","audio-keyboard-response","138","2.1.0","938465","J=YES, F=NO","x8j70bprwe","1","81","83","80","","","","","","","","","","","","","","","",""
"916","
          <p id=""word"" style=""font-size: 40px;"">trim</p>
          <p style=""font-size: 16px;"">J = YES &nbsp;&nbsp;&nbsp; F = NO</p>
        ","j","html-keyboard-response","139","2.1.0","939382","J=YES, F=NO","x8j70bprwe","1","81","83","80","","","","","","","","","trim","fence","filler","filler","j","true","",""
"null","<p style=""font-size: 50px;"">+</p>","null","html-keyboard-response","140","2.1.0","939690","J=YES, F=NO","x8j70bprwe","1","81","83","80","","","","","","","","","","","","","","","",""
"null","audio/beep-329314.mp3","null","audio-keyboard-response","141","2.1.0","941254","J=YES, F=NO","x8j70bprwe","1","81","83","80","","","","","","","","","","","","","","","",""
"null","audio/brain.wav","null","audio-keyboard-response","142","2.1.0","941893","J=YES, F=NO","x8j70bprwe","1","81","83","80","","","","","","","","","","","","","","","",""
"650","
          <p id=""word"" style=""font-size: 40px;"">throw</p>
          <p style=""font-size: 16px;"">J = YES &nbsp;&nbsp;&nbsp; F = NO</p>
        ","j","html-keyboard-response","143","2.1.0","942544","J=YES, F=NO","x8j70bprwe","1","81","83","80","","","","","","","","","throw","brain","filler","filler","j","true","",""
"null","<p style=""font-size: 50px;"">+</p>","null","html-keyboard-response","144","2.1.0","942858","J=YES, F=NO","x8j70bprwe","1","81","83","80","","","","","","","","","","","","","","","",""
"null","audio/beep-329314.mp3","null","audio-keyboard-response","145","2.1.0","944420","J=YES, F=NO","x8j70bprwe","1","81","83","80","","","","","","","","","","","","","","","",""
"null","audio/sugar1.wav","null","audio-keyboard-response","146","2.1.0","944905","J=YES, F=NO","x8j70bprwe","1","81","83","80","","","","","","","","","","","","","","","",""
"718","
          <p id=""word"" style=""font-size: 40px;"">glung</p>
          <p style=""font-size: 16px;"">J = YES &nbsp;&nbsp;&nbsp; F = NO</p>
        ","f","html-keyboard-response","147","2.1.0","945624","J=YES, F=NO","x8j70bprwe","1","81","83","80","","","","","","","","","glung","sugar1","pseudoword","pseudoword","f","true","",""
"null","<p style=""font-size: 50px;"">+</p>","null","html-keyboard-response","148","2.1.0","945933","J=YES, F=NO","x8j70bprwe","1","81","83","80","","","","","","","","","","","","","","","",""
"null","audio/beep-329314.mp3","null","audio-keyboard-response","149","2.1.0","947485","J=YES, F=NO","x8j70bprwe","1","81","83","80","","","","","","","","","","","","","","","",""
"null","audio/survey1.wav","null","audio-keyboard-response","150","2.1.0","948215","J=YES, F=NO","x8j70bprwe","1","81","83","80","","","","","","","","","","","","","","","",""
"638","
          <p id=""word"" style=""font-size: 40px;"">imploth</p>
          <p style=""font-size: 16px;"">J = YES &nbsp;&nbsp;&nbsp; F = NO</p>
        ","f","html-keyboard-response","151","2.1.0","948853","J=YES, F=NO","x8j70bprwe","1","81","83","80","","","","","","","","","imploth","survey1","pseudoword","pseudoword","f","true","",""
"null","<p style=""font-size: 50px;"">+</p>","null","html-keyboard-response","152","2.1.0","949168","J=YES, F=NO","x8j70bprwe","1","81","83","80","","","","","","","","","","","","","","","",""
"null","audio/beep-329314.mp3","null","audio-keyboard-response","153","2.1.0","950723","J=YES, F=NO","x8j70bprwe","1","81","83","80","","","","","","","","","","","","","","","",""
"null","audio/age1.wav","null","audio-keyboard-response","154","2.1.0","951243","J=YES, F=NO","x8j70bprwe","1","81","83","80","","","","","","","","","","","","","","","",""
"775","
          <p id=""word"" style=""font-size: 40px;"">lachry</p>
          <p style=""font-size: 16px;"">J = YES &nbsp;&nbsp;&nbsp; F = NO</p>
        ","f","html-keyboard-response","155","2.1.0","952018","J=YES, F=NO","x8j70bprwe","1","81","83","80","","","","","","","","","lachry","age1","pseudoword","pseudoword","f","true","",""
"null","<p style=""font-size: 50px;"">+</p>","null","html-keyboard-response","156","2.1.0","952326","J=YES, F=NO","x8j70bprwe","1","81","83","80","","","","","","","","","","","","","","","",""
"null","audio/beep-329314.mp3","null","audio-keyboard-response","157","2.1.0","953873","J=YES, F=NO","x8j70bprwe","1","81","83","80","","","","","","","","","","","","","","","",""
"null","audio/purpose.wav","null","audio-keyboard-response","158","2.1.0","954608","J=YES, F=NO","x8j70bprwe","1","81","83","80","","","","","","","","","","","","","","","",""
"694","
          <p id=""word"" style=""font-size: 40px;"">whigm</p>
          <p style=""font-size: 16px;"">J = YES &nbsp;&nbsp;&nbsp; F = NO</p>
        ","f","html-keyboard-response","159","2.1.0","955303","J=YES, F=NO","x8j70bprwe","1","81","83","80","","","","","","","","","whigm","purpose","pseudoword","pseudoword","f","true","",""
"null","<p style=""font-size: 50px;"">+</p>","null","html-keyboard-response","160","2.1.0","955612","J=YES, F=NO","x8j70bprwe","1","81","83","80","","","","","","","","","","","","","","","",""
"null","audio/beep-329314.mp3","null","audio-keyboard-response","161","2.1.0","957124","J=YES, F=NO","x8j70bprwe","1","81","83","80","","","","","","","","","","","","","","","",""
"null","audio/window1.wav","null","audio-keyboard-response","162","2.1.0","957797","J=YES, F=NO","x8j70bprwe","1","81","83","80","","","","","","","","","","","","","","","",""
"498","
          <p id=""word"" style=""font-size: 40px;"">toss</p>
          <p style=""font-size: 16px;"">J = YES &nbsp;&nbsp;&nbsp; F = NO</p>
        ","j","html-keyboard-response","163","2.1.0","958296","J=YES, F=NO","x8j70bprwe","1","81","83","80","","","","","","","","","toss","window1","filler","filler","j","true","",""
"19622","
    <div style=""max-width: 800px; margin: auto; text-align: left;"">
      <h2>Part 2: Main Trials</h2>
      <p>Great job on the practice trials!</p>
      <p>You will now begin the <strong>main set of trials</strong>.</p>
      <p>Remember your key assignments:</p>
      <ul>
        <li><strong>J</strong> = YES (real English word)</li>
        <li><strong>F</strong> = NO (not a real English word)</li>
      </ul>
      <p>Try to respond as <strong>quickly and accurately</strong> as possible.</p>
      <p style=""margin-top: 2em;"">Press any key to begin the main trials.</p>
    </div>
  "," ","html-keyboard-response","164","2.1.0","977918","J=YES, F=NO","x8j70bprwe","1","81","83","80","","","","","","","","","","","","","","","",""
"1564","<p>Starting main block 1 of 8. Press any key to continue.</p>"," ","html-keyboard-response","165","2.1.0","979483","J=YES, F=NO","x8j70bprwe","1","81","83","80","","","","","","","","","","","","","","","",""
"null","<p style=""font-size: 50px;"">+</p>","null","html-keyboard-response","166","2.1.0","979792","J=YES, F=NO","x8j70bprwe","1","81","83","80","","","","","","","","","","","","","","","",""
"null","audio/beep-329314.mp3","null","audio-keyboard-response","167","2.1.0","981303","J=YES, F=NO","x8j70bprwe","1","81","83","80","","","","","","","","","","","","","","","",""
"null","audio/cave1.wav","null","audio-keyboard-response","168","2.1.0","981866","J=YES, F=NO","x8j70bprwe","1","81","83","80","","","","","","","","","","","","","","","",""
"876","
          <p id=""word"" style=""font-size: 40px;"">blacket</p>
          <p style=""font-size: 16px;"">J = YES &nbsp;&nbsp;&nbsp; F = NO</p>
        ","j","html-keyboard-response","169","2.1.0","982743","J=YES, F=NO","x8j70bprwe","1","81","83","80","","","","","","","","","blacket","cave1","pseudoword","pseudoword","f","false","",""
"null","<p style=""font-size: 50px;"">+</p>","null","html-keyboard-response","170","2.1.0","983048","J=YES, F=NO","x8j70bprwe","1","81","83","80","","","","","","","","","","","","","","","",""
"null","audio/beep-329314.mp3","null","audio-keyboard-response","171","2.1.0","984600","J=YES, F=NO","x8j70bprwe","1","81","83","80","","","","","","","","","","","","","","","",""
"null","audio/budget1.wav","null","audio-keyboard-response","172","2.1.0","985216","J=YES, F=NO","x8j70bprwe","1","81","83","80","","","","","","","","","","","","","","","",""
"610","
          <p id=""word"" style=""font-size: 40px;"">sulist</p>
          <p style=""font-size: 16px;"">J = YES &nbsp;&nbsp;&nbsp; F = NO</p>
        ","f","html-keyboard-response","173","2.1.0","985827","J=YES, F=NO","x8j70bprwe","1","81","83","80","","","","","","","","","sulist","budget1","pseudoword","pseudoword","f","true","",""
"null","<p style=""font-size: 50px;"">+</p>","null","html-keyboard-response","174","2.1.0","986140","J=YES, F=NO","x8j70bprwe","1","81","83","80","","","","","","","","","","","","","","","",""
"null","audio/beep-329314.mp3","null","audio-keyboard-response","175","2.1.0","987662","J=YES, F=NO","x8j70bprwe","1","81","83","80","","","","","","","","","","","","","","","",""
"null","audio/winter.wav","null","audio-keyboard-response","176","2.1.0","988212","J=YES, F=NO","x8j70bprwe","1","81","83","80","","","","","","","","","","","","","","","",""
"714","
          <p id=""word"" style=""font-size: 40px;"">straven</p>
          <p style=""font-size: 16px;"">J = YES &nbsp;&nbsp;&nbsp; F = NO</p>
        ","f","html-keyboard-response","177","2.1.0","988927","J=YES, F=NO","x8j70bprwe","1","81","83","80","","","","","","","","","straven","winter","pseudoword","pseudoword","f","true","",""
"null","<p style=""font-size: 50px;"">+</p>","null","html-keyboard-response","178","2.1.0","989240","J=YES, F=NO","x8j70bprwe","1","81","83","80","","","","","","","","","","","","","","","",""
"null","audio/beep-329314.mp3","null","audio-keyboard-response","179","2.1.0","990773","J=YES, F=NO","x8j70bprwe","1","81","83","80","","","","","","","","","","","","","","","",""
"null","audio/devil1.wav","null","audio-keyboard-response","180","2.1.0","991202","J=YES, F=NO","x8j70bprwe","1","81","83","80","","","","","","","","","","","","","","","",""
"512","
          <p id=""word"" style=""font-size: 40px;"">carry</p>
          <p style=""font-size: 16px;"">J = YES &nbsp;&nbsp;&nbsp; F = NO</p>
        ","j","html-keyboard-response","181","2.1.0","991714","J=YES, F=NO","x8j70bprwe","1","81","83","80","","","","","","","","","carry","devil1","unrelated","experimental","j","true","",""
"null","<p style=""font-size: 50px;"">+</p>","null","html-keyboard-response","182","2.1.0","992021","J=YES, F=NO","x8j70bprwe","1","81","83","80","","","","","","","","","","","","","","","",""
"null","audio/beep-329314.mp3","null","audio-keyboard-response","183","2.1.0","993581","J=YES, F=NO","x8j70bprwe","1","81","83","80","","","","","","","","","","","","","","","",""
"null","audio/strength.wav","null","audio-keyboard-response","184","2.1.0","994293","J=YES, F=NO","x8j70bprwe","1","81","83","80","","","","","","","","","","","","","","","",""
"700","
          <p id=""word"" style=""font-size: 40px;"">plabet</p>
          <p style=""font-size: 16px;"">J = YES &nbsp;&nbsp;&nbsp; F = NO</p>
        ","f","html-keyboard-response","185","2.1.0","994993","J=YES, F=NO","x8j70bprwe","1","81","83","80","","","","","","","","","plabet","strength","pseudoword","pseudoword","f","true","",""
"null","<p style=""font-size: 50px;"">+</p>","null","html-keyboard-response","186","2.1.0","995296","J=YES, F=NO","x8j70bprwe","1","81","83","80","","","","","","","","","","","","","","","",""
"null","audio/beep-329314.mp3","null","audio-keyboard-response","187","2.1.0","996858","J=YES, F=NO","x8j70bprwe","1","81","83","80","","","","","","","","","","","","","","","",""
"null","audio/rain.wav","null","audio-keyboard-response","188","2.1.0","997339","J=YES, F=NO","x8j70bprwe","1","81","83","80","","","","","","","","","","","","","","","",""
"513","
          <p id=""word"" style=""font-size: 40px;"">lose</p>
          <p style=""font-size: 16px;"">J = YES &nbsp;&nbsp;&nbsp; F = NO</p>
        ","j","html-keyboard-response","189","2.1.0","997853","J=YES, F=NO","x8j70bprwe","1","81","83","80","","","","","","","","","lose","rain","unrelated","experimental","j","true","",""
"null","<p style=""font-size: 50px;"">+</p>","null","html-keyboard-response","190","2.1.0","998161","J=YES, F=NO","x8j70bprwe","1","81","83","80","","","","","","","","","","","","","","","",""
"null","audio/beep-329314.mp3","null","audio-keyboard-response","191","2.1.0","999702","J=YES, F=NO","x8j70bprwe","1","81","83","80","","","","","","","","","","","","","","","",""
"null","audio/street.wav","null","audio-keyboard-response","192","2.1.0","1000382","J=YES, F=NO","x8j70bprwe","1","81","83","80","","","","","","","","","","","","","","","",""
"568","
          <p id=""word"" style=""font-size: 40px;"">hold</p>
          <p style=""font-size: 16px;"">J = YES &nbsp;&nbsp;&nbsp; F = NO</p>
        ","j","html-keyboard-response","193","2.1.0","1000951","J=YES, F=NO","x8j70bprwe","1","81","83","80","","","","","","","","","hold","street","unrelated","experimental","j","true","",""
"null","<p style=""font-size: 50px;"">+</p>","null","html-keyboard-response","194","2.1.0","1001263","J=YES, F=NO","x8j70bprwe","1","81","83","80","","","","","","","","","","","","","","","",""
"null","audio/beep-329314.mp3","null","audio-keyboard-response","195","2.1.0","1002773","J=YES, F=NO","x8j70bprwe","1","81","83","80","","","","","","","","","","","","","","","",""
"null","audio/cash1.wav","null","audio-keyboard-response","196","2.1.0","1003316","J=YES, F=NO","x8j70bprwe","1","81","83","80","","","","","","","","","","","","","","","",""
"683","
          <p id=""word"" style=""font-size: 40px;"">splear</p>
          <p style=""font-size: 16px;"">J = YES &nbsp;&nbsp;&nbsp; F = NO</p>
        ","f","html-keyboard-response","197","2.1.0","1004000","J=YES, F=NO","x8j70bprwe","1","81","83","80","","","","","","","","","splear","cash1","pseudoword","pseudoword","f","true","",""
"null","<p style=""font-size: 50px;"">+</p>","null","html-keyboard-response","198","2.1.0","1004325","J=YES, F=NO","x8j70bprwe","1","81","83","80","","","","","","","","","","","","","","","",""
"null","audio/beep-329314.mp3","null","audio-keyboard-response","199","2.1.0","1005866","J=YES, F=NO","x8j70bprwe","1","81","83","80","","","","","","","","","","","","","","","",""
"null","audio/breath.wav","null","audio-keyboard-response","200","2.1.0","1006409","J=YES, F=NO","x8j70bprwe","1","81","83","80","","","","","","","","","","","","","","","",""
"535","
          <p id=""word"" style=""font-size: 40px;"">twets</p>
          <p style=""font-size: 16px;"">J = YES &nbsp;&nbsp;&nbsp; F = NO</p>
        ","j","html-keyboard-response","201","2.1.0","1006943","J=YES, F=NO","x8j70bprwe","1","81","83","80","","","","","","","","","twets","breath","pseudoword","pseudoword","f","false","",""
"null","<p style=""font-size: 50px;"">+</p>","null","html-keyboard-response","202","2.1.0","1007252","J=YES, F=NO","x8j70bprwe","1","81","83","80","","","","","","","","","","","","","","","",""
"null","audio/beep-329314.mp3","null","audio-keyboard-response","203","2.1.0","1008774","J=YES, F=NO","x8j70bprwe","1","81","83","80","","","","","","","","","","","","","","","",""
"null","audio/haste1.wav","null","audio-keyboard-response","204","2.1.0","1009324","J=YES, F=NO","x8j70bprwe","1","81","83","80","","","","","","","","","","","","","","","",""
"746","
          <p id=""word"" style=""font-size: 40px;"">coraconate</p>
          <p style=""font-size: 16px;"">J = YES &nbsp;&nbsp;&nbsp; F = NO</p>
        ","f","html-keyboard-response","205","2.1.0","1010069","J=YES, F=NO","x8j70bprwe","1","81","83","80","","","","","","","","","coraconate","haste1","pseudoword","pseudoword","f","true","",""
"null","<p style=""font-size: 50px;"">+</p>","null","html-keyboard-response","206","2.1.0","1010384","J=YES, F=NO","x8j70bprwe","1","81","83","80","","","","","","","","","","","","","","","",""
"null","audio/beep-329314.mp3","null","audio-keyboard-response","207","2.1.0","1011928","J=YES, F=NO","x8j70bprwe","1","81","83","80","","","","","","","","","","","","","","","",""
"null","audio/cinema1.wav","null","audio-keyboard-response","208","2.1.0","1012554","J=YES, F=NO","x8j70bprwe","1","81","83","80","","","","","","","","","","","","","","","",""
"519","
          <p id=""word"" style=""font-size: 40px;"">grow</p>
          <p style=""font-size: 16px;"">J = YES &nbsp;&nbsp;&nbsp; F = NO</p>
        ","j","html-keyboard-response","209","2.1.0","1013074","J=YES, F=NO","x8j70bprwe","1","81","83","80","","","","","","","","","grow","cinema1","unrelated","experimental","j","true","",""
"null","<p style=""font-size: 50px;"">+</p>","null","html-keyboard-response","210","2.1.0","1013374","J=YES, F=NO","x8j70bprwe","1","81","83","80","","","","","","","","","","","","","","","",""
"null","audio/beep-329314.mp3","null","audio-keyboard-response","211","2.1.0","1014897","J=YES, F=NO","x8j70bprwe","1","81","83","80","","","","","","","","","","","","","","","",""
"null","audio/stain.wav","null","audio-keyboard-response","212","2.1.0","1015567","J=YES, F=NO","x8j70bprwe","1","81","83","80","","","","","","","","","","","","","","","",""
"820","
          <p id=""word"" style=""font-size: 40px;"">rumpsied</p>
          <p style=""font-size: 16px;"">J = YES &nbsp;&nbsp;&nbsp; F = NO</p>
        ","f","html-keyboard-response","213","2.1.0","1016387","J=YES, F=NO","x8j70bprwe","1","81","83","80","","","","","","","","","rumpsied","stain","pseudoword","pseudoword","f","true","",""
"null","<p style=""font-size: 50px;"">+</p>","null","html-keyboard-response","214","2.1.0","1016716","J=YES, F=NO","x8j70bprwe","1","81","83","80","","","","","","","","","","","","","","","",""
"null","audio/beep-329314.mp3","null","audio-keyboard-response","215","2.1.0","1018258","J=YES, F=NO","x8j70bprwe","1","81","83","80","","","","","","","","","","","","","","","",""
"null","audio/baby.wav","null","audio-keyboard-response","216","2.1.0","1018698","J=YES, F=NO","x8j70bprwe","1","81","83","80","","","","","","","","","","","","","","","",""
"582","
          <p id=""word"" style=""font-size: 40px;"">lift</p>
          <p style=""font-size: 16px;"">J = YES &nbsp;&nbsp;&nbsp; F = NO</p>
        ","j","html-keyboard-response","217","2.1.0","1019281","J=YES, F=NO","x8j70bprwe","1","81","83","80","","","","","","","","","lift","baby","filler","filler","j","true","",""
"null","<p style=""font-size: 50px;"">+</p>","null","html-keyboard-response","218","2.1.0","1019585","J=YES, F=NO","x8j70bprwe","1","81","83","80","","","","","","","","","","","","","","","",""
"null","audio/beep-329314.mp3","null","audio-keyboard-response","219","2.1.0","1021093","J=YES, F=NO","x8j70bprwe","1","81","83","80","","","","","","","","","","","","","","","",""
"null","audio/meal.wav","null","audio-keyboard-response","220","2.1.0","1021526","J=YES, F=NO","x8j70bprwe","1","81","83","80","","","","","","","","","","","","","","","",""
"700","
          <p id=""word"" style=""font-size: 40px;"">share</p>
          <p style=""font-size: 16px;"">J = YES &nbsp;&nbsp;&nbsp; F = NO</p>
        ","j","html-keyboard-response","221","2.1.0","1022226","J=YES, F=NO","x8j70bprwe","1","81","83","80","","","","","","","","","share","meal","literal","experimental","j","true","",""
"null","<p style=""font-size: 50px;"">+</p>","null","html-keyboard-response","222","2.1.0","1022557","J=YES, F=NO","x8j70bprwe","1","81","83","80","","","","","","","","","","","","","","","",""
"null","audio/beep-329314.mp3","null","audio-keyboard-response","223","2.1.0","1024117","J=YES, F=NO","x8j70bprwe","1","81","83","80","","","","","","","","","","","","","","","",""
"null","audio/voice.wav","null","audio-keyboard-response","224","2.1.0","1024698","J=YES, F=NO","x8j70bprwe","1","81","83","80","","","","","","","","","","","","","","","",""
"632","
          <p id=""word"" style=""font-size: 40px;"">flood</p>
          <p style=""font-size: 16px;"">J = YES &nbsp;&nbsp;&nbsp; F = NO</p>
        ","j","html-keyboard-response","225","2.1.0","1025329","J=YES, F=NO","x8j70bprwe","1","81","83","80","","","","","","","","","flood","voice","unrelated","experimental","j","true","",""
"null","<p style=""font-size: 50px;"">+</p>","null","html-keyboard-response","226","2.1.0","1025643","J=YES, F=NO","x8j70bprwe","1","81","83","80","","","","","","","","","","","","","","","",""
"null","audio/beep-329314.mp3","null","audio-keyboard-response","227","2.1.0","1027186","J=YES, F=NO","x8j70bprwe","1","81","83","80","","","","","","","","","","","","","","","",""
"null","audio/sand.wav","null","audio-keyboard-response","228","2.1.0","1027856","J=YES, F=NO","x8j70bprwe","1","81","83","80","","","","","","","","","","","","","","","",""
"876","
          <p id=""word"" style=""font-size: 40px;"">proted</p>
          <p style=""font-size: 16px;"">J = YES &nbsp;&nbsp;&nbsp; F = NO</p>
        ","f","html-keyboard-response","229","2.1.0","1028733","J=YES, F=NO","x8j70bprwe","1","81","83","80","","","","","","","","","proted","sand","pseudoword","pseudoword","f","true","",""
"3919","<p>Excellent! You have finished block 1 of 8.</p>
                     <p>Feel free to take a 30 second break.</p>
                     <p>Press any key when you're ready to continue.</p>"," ","html-keyboard-response","230","2.1.0","1032651","J=YES, F=NO","x8j70bprwe","1","81","83","80","","","","","","","","","","","","","","","",""
"1057","<p>Starting main block 2 of 8. Press any key to continue.</p>"," ","html-keyboard-response","231","2.1.0","1033709","J=YES, F=NO","x8j70bprwe","1","81","83","80","","","","","","","","","","","","","","","",""
"null","<p style=""font-size: 50px;"">+</p>","null","html-keyboard-response","232","2.1.0","1034017","J=YES, F=NO","x8j70bprwe","1","81","83","80","","","","","","","","","","","","","","","",""
"null","audio/beep-329314.mp3","null","audio-keyboard-response","233","2.1.0","1035543","J=YES, F=NO","x8j70bprwe","1","81","83","80","","","","","","","","","","","","","","","",""
"null","audio/prisoner.wav","null","audio-keyboard-response","234","2.1.0","1036043","J=YES, F=NO","x8j70bprwe","1","81","83","80","","","","","","","","","","","","","","","",""
"768","
          <p id=""word"" style=""font-size: 40px;"">egotian</p>
          <p style=""font-size: 16px;"">J = YES &nbsp;&nbsp;&nbsp; F = NO</p>
        ","j","html-keyboard-response","235","2.1.0","1036811","J=YES, F=NO","x8j70bprwe","1","81","83","80","","","","","","","","","egotian","prisoner","pseudoword","pseudoword","f","false","",""
"null","<p style=""font-size: 50px;"">+</p>","null","html-keyboard-response","236","2.1.0","1037114","J=YES, F=NO","x8j70bprwe","1","81","83","80","","","","","","","","","","","","","","","",""
"null","audio/beep-329314.mp3","null","audio-keyboard-response","237","2.1.0","1038657","J=YES, F=NO","x8j70bprwe","1","81","83","80","","","","","","","","","","","","","","","",""
"null","audio/hawk1.wav","null","audio-keyboard-response","238","2.1.0","1039237","J=YES, F=NO","x8j70bprwe","1","81","83","80","","","","","","","","","","","","","","","",""
"694","
          <p id=""word"" style=""font-size: 40px;"">wipe</p>
          <p style=""font-size: 16px;"">J = YES &nbsp;&nbsp;&nbsp; F = NO</p>
        ","j","html-keyboard-response","239","2.1.0","1039932","J=YES, F=NO","x8j70bprwe","1","81","83","80","","","","","","","","","wipe","hawk1","unrelated","experimental","j","true","",""
"null","<p style=""font-size: 50px;"">+</p>","null","html-keyboard-response","240","2.1.0","1040236","J=YES, F=NO","x8j70bprwe","1","81","83","80","","","","","","","","","","","","","","","",""
"null","audio/beep-329314.mp3","null","audio-keyboard-response","241","2.1.0","1041790","J=YES, F=NO","x8j70bprwe","1","81","83","80","","","","","","","","","","","","","","","",""
"null","audio/key1.wav","null","audio-keyboard-response","242","2.1.0","1042181","J=YES, F=NO","x8j70bprwe","1","81","83","80","","","","","","","","","","","","","","","",""
"735","
          <p id=""word"" style=""font-size: 40px;"">sminsh</p>
          <p style=""font-size: 16px;"">J = YES &nbsp;&nbsp;&nbsp; F = NO</p>
        ","f","html-keyboard-response","243","2.1.0","1042916","J=YES, F=NO","x8j70bprwe","1","81","83","80","","","","","","","","","sminsh","key1","pseudoword","pseudoword","f","true","",""
"null","<p style=""font-size: 50px;"">+</p>","null","html-keyboard-response","244","2.1.0","1043225","J=YES, F=NO","x8j70bprwe","1","81","83","80","","","","","","","","","","","","","","","",""
"null","audio/beep-329314.mp3","null","audio-keyboard-response","245","2.1.0","1044729","J=YES, F=NO","x8j70bprwe","1","81","83","80","","","","","","","","","","","","","","","",""
"null","audio/road.wav","null","audio-keyboard-response","246","2.1.0","1045120","J=YES, F=NO","x8j70bprwe","1","81","83","80","","","","","","","","","","","","","","","",""
"939","
          <p id=""word"" style=""font-size: 40px;"">wappings</p>
          <p style=""font-size: 16px;"">J = YES &nbsp;&nbsp;&nbsp; F = NO</p>
        ","j","html-keyboard-response","247","2.1.0","1046061","J=YES, F=NO","x8j70bprwe","1","81","83","80","","","","","","","","","wappings","road","pseudoword","pseudoword","f","false","",""
"null","<p style=""font-size: 50px;"">+</p>","null","html-keyboard-response","248","2.1.0","1046383","J=YES, F=NO","x8j70bprwe","1","81","83","80","","","","","","","","","","","","","","","",""
"null","audio/beep-329314.mp3","null","audio-keyboard-response","249","2.1.0","1047907","J=YES, F=NO","x8j70bprwe","1","81","83","80","","","","","","","","","","","","","","","",""
"null","audio/corpse1.wav","null","audio-keyboard-response","250","2.1.0","1048536","J=YES, F=NO","x8j70bprwe","1","81","83","80","","","","","","","","","","","","","","","",""
"697","
          <p id=""word"" style=""font-size: 40px;"">glonet</p>
          <p style=""font-size: 16px;"">J = YES &nbsp;&nbsp;&nbsp; F = NO</p>
        ","f","html-keyboard-response","251","2.1.0","1049233","J=YES, F=NO","x8j70bprwe","1","81","83","80","","","","","","","","","glonet","corpse1","pseudoword","pseudoword","f","true","",""
"null","<p style=""font-size: 50px;"">+</p>","null","html-keyboard-response","252","2.1.0","1049544","J=YES, F=NO","x8j70bprwe","1","81","83","80","","","","","","","","","","","","","","","",""
"null","audio/beep-329314.mp3","null","audio-keyboard-response","253","2.1.0","1051086","J=YES, F=NO","x8j70bprwe","1","81","83","80","","","","","","","","","","","","","","","",""
"null","audio/cloud1.wav","null","audio-keyboard-response","254","2.1.0","1051657","J=YES, F=NO","x8j70bprwe","1","81","83","80","","","","","","","","","","","","","","","",""
"477","
          <p id=""word"" style=""font-size: 40px;"">scrap</p>
          <p style=""font-size: 16px;"">J = YES &nbsp;&nbsp;&nbsp; F = NO</p>
        ","j","html-keyboard-response","255","2.1.0","1052135","J=YES, F=NO","x8j70bprwe","1","81","83","80","","","","","","","","","scrap","cloud1","unrelated","experimental","j","true","",""
"null","<p style=""font-size: 50px;"">+</p>","null","html-keyboard-response","256","2.1.0","1052450","J=YES, F=NO","x8j70bprwe","1","81","83","80","","","","","","","","","","","","","","","",""
"null","audio/beep-329314.mp3","null","audio-keyboard-response","257","2.1.0","1054003","J=YES, F=NO","x8j70bprwe","1","81","83","80","","","","","","","","","","","","","","","",""
"null","audio/holiday1.wav","null","audio-keyboard-response","258","2.1.0","1054598","J=YES, F=NO","x8j70bprwe","1","81","83","80","","","","","","","","","","","","","","","",""
"686","
          <p id=""word"" style=""font-size: 40px;"">drivets</p>
          <p style=""font-size: 16px;"">J = YES &nbsp;&nbsp;&nbsp; F = NO</p>
        ","f","html-keyboard-response","259","2.1.0","1055284","J=YES, F=NO","x8j70bprwe","1","81","83","80","","","","","","","","","drivets","holiday1","pseudoword","pseudoword","f","true","",""
"null","<p style=""font-size: 50px;"">+</p>","null","html-keyboard-response","260","2.1.0","1055605","J=YES, F=NO","x8j70bprwe","1","81","83","80","","","","","","","","","","","","","","","",""
"null","audio/beep-329314.mp3","null","audio-keyboard-response","261","2.1.0","1057168","J=YES, F=NO","x8j70bprwe","1","81","83","80","","","","","","","","","","","","","","","",""
"null","audio/enemy1.wav","null","audio-keyboard-response","262","2.1.0","1057669","J=YES, F=NO","x8j70bprwe","1","81","83","80","","","","","","","","","","","","","","","",""
"590","
          <p id=""word"" style=""font-size: 40px;"">defeat</p>
          <p style=""font-size: 16px;"">J = YES &nbsp;&nbsp;&nbsp; F = NO</p>
        ","j","html-keyboard-response","263","2.1.0","1058260","J=YES, F=NO","x8j70bprwe","1","81","83","80","","","","","","","","","defeat","enemy1","literal","experimental","j","true","",""
"null","<p style=""font-size: 50px;"">+</p>","null","html-keyboard-response","264","2.1.0","1058573","J=YES, F=NO","x8j70bprwe","1","81","83","80","","","","","","","","","","","","","","","",""
"null","audio/beep-329314.mp3","null","audio-keyboard-response","265","2.1.0","1060078","J=YES, F=NO","x8j70bprwe","1","81","83","80","","","","","","","","","","","","","","","",""
"null","audio/size1.wav","null","audio-keyboard-response","266","2.1.0","1060854","J=YES, F=NO","x8j70bprwe","1","81","83","80","","","","","","","","","","","","","","","",""
"633","
          <p id=""word"" style=""font-size: 40px;"">clear</p>
          <p style=""font-size: 16px;"">J = YES &nbsp;&nbsp;&nbsp; F = NO</p>
        ","j","html-keyboard-response","267","2.1.0","1061486","J=YES, F=NO","x8j70bprwe","1","81","83","80","","","","","","","","","clear","size1","unrelated","experimental","j","true","",""
"null","<p style=""font-size: 50px;"">+</p>","null","html-keyboard-response","268","2.1.0","1061791","J=YES, F=NO","x8j70bprwe","1","81","83","80","","","","","","","","","","","","","","","",""
"null","audio/beep-329314.mp3","null","audio-keyboard-response","269","2.1.0","1063313","J=YES, F=NO","x8j70bprwe","1","81","83","80","","","","","","","","","","","","","","","",""
"null","audio/scar.wav","null","audio-keyboard-response","270","2.1.0","1063934","J=YES, F=NO","x8j70bprwe","1","81","83","80","","","","","","","","","","","","","","","",""
"772","
          <p id=""word"" style=""font-size: 40px;"">hide</p>
          <p style=""font-size: 16px;"">J = YES &nbsp;&nbsp;&nbsp; F = NO</p>
        ","j","html-keyboard-response","271","2.1.0","1064706","J=YES, F=NO","x8j70bprwe","1","81","83","80","","","","","","","","","hide","scar","literal","experimental","j","true","",""
"null","<p style=""font-size: 50px;"">+</p>","null","html-keyboard-response","272","2.1.0","1065016","J=YES, F=NO","x8j70bprwe","1","81","83","80","","","","","","","","","","","","","","","",""
"null","audio/beep-329314.mp3","null","audio-keyboard-response","273","2.1.0","1066589","J=YES, F=NO","x8j70bprwe","1","81","83","80","","","","","","","","","","","","","","","",""
"null","audio/vehicle1.wav","null","audio-keyboard-response","274","2.1.0","1067229","J=YES, F=NO","x8j70bprwe","1","81","83","80","","","","","","","","","","","","","","","",""
"670","
          <p id=""word"" style=""font-size: 40px;"">dropt</p>
          <p style=""font-size: 16px;"">J = YES &nbsp;&nbsp;&nbsp; F = NO</p>
        ","f","html-keyboard-response","275","2.1.0","1067899","J=YES, F=NO","x8j70bprwe","1","81","83","80","","","","","","","","","dropt","vehicle1","pseudoword","pseudoword","f","true","",""
"null","<p style=""font-size: 50px;"">+</p>","null","html-keyboard-response","276","2.1.0","1068209","J=YES, F=NO","x8j70bprwe","1","81","83","80","","","","","","","","","","","","","","","",""
"null","audio/beep-329314.mp3","null","audio-keyboard-response","277","2.1.0","1069731","J=YES, F=NO","x8j70bprwe","1","81","83","80","","","","","","","","","","","","","","","",""
"null","audio/weight1.wav","null","audio-keyboard-response","278","2.1.0","1070239","J=YES, F=NO","x8j70bprwe","1","81","83","80","","","","","","","","","","","","","","","",""
"744","
          <p id=""word"" style=""font-size: 40px;"">support</p>
          <p style=""font-size: 16px;"">J = YES &nbsp;&nbsp;&nbsp; F = NO</p>
        ","j","html-keyboard-response","279","2.1.0","1070985","J=YES, F=NO","x8j70bprwe","1","81","83","80","","","","","","","","","support","weight1","literal","experimental","j","true","",""
"null","<p style=""font-size: 50px;"">+</p>","null","html-keyboard-response","280","2.1.0","1071288","J=YES, F=NO","x8j70bprwe","1","81","83","80","","","","","","","","","","","","","","","",""
"null","audio/beep-329314.mp3","null","audio-keyboard-response","281","2.1.0","1072798","J=YES, F=NO","x8j70bprwe","1","81","83","80","","","","","","","","","","","","","","","",""
"null","audio/client1.wav","null","audio-keyboard-response","282","2.1.0","1073503","J=YES, F=NO","x8j70bprwe","1","81","83","80","","","","","","","","","","","","","","","",""
"912","
          <p id=""word"" style=""font-size: 40px;"">droothe</p>
          <p style=""font-size: 16px;"">J = YES &nbsp;&nbsp;&nbsp; F = NO</p>
        ","f","html-keyboard-response","283","2.1.0","1074415","J=YES, F=NO","x8j70bprwe","1","81","83","80","","","","","","","","","droothe","client1","pseudoword","pseudoword","f","true","",""
"null","<p style=""font-size: 50px;"">+</p>","null","html-keyboard-response","284","2.1.0","1074720","J=YES, F=NO","x8j70bprwe","1","81","83","80","","","","","","","","","","","","","","","",""
"null","audio/beep-329314.mp3","null","audio-keyboard-response","285","2.1.0","1076282","J=YES, F=NO","x8j70bprwe","1","81","83","80","","","","","","","","","","","","","","","",""
"null","audio/life1.wav","null","audio-keyboard-response","286","2.1.0","1076844","J=YES, F=NO","x8j70bprwe","1","81","83","80","","","","","","","","","","","","","","","",""
"637","
          <p id=""word"" style=""font-size: 40px;"">give</p>
          <p style=""font-size: 16px;"">J = YES &nbsp;&nbsp;&nbsp; F = NO</p>
        ","j","html-keyboard-response","287","2.1.0","1077480","J=YES, F=NO","x8j70bprwe","1","81","83","80","","","","","","","","","give","life1","metaphor","experimental","j","true","",""
"null","<p style=""font-size: 50px;"">+</p>","null","html-keyboard-response","288","2.1.0","1077796","J=YES, F=NO","x8j70bprwe","1","81","83","80","","","","","","","","","","","","","","","",""
"null","audio/beep-329314.mp3","null","audio-keyboard-response","289","2.1.0","1079360","J=YES, F=NO","x8j70bprwe","1","81","83","80","","","","","","","","","","","","","","","",""
"null","audio/age1.wav","null","audio-keyboard-response","290","2.1.0","1079929","J=YES, F=NO","x8j70bprwe","1","81","83","80","","","","","","","","","","","","","","","",""
"529","
          <p id=""word"" style=""font-size: 40px;"">bake</p>
          <p style=""font-size: 16px;"">J = YES &nbsp;&nbsp;&nbsp; F = NO</p>
        ","j","html-keyboard-response","291","2.1.0","1080458","J=YES, F=NO","x8j70bprwe","1","81","83","80","","","","","","","","","bake","age1","filler","filler","j","true","",""
"null","<p style=""font-size: 50px;"">+</p>","null","html-keyboard-response","292","2.1.0","1080764","J=YES, F=NO","x8j70bprwe","1","81","83","80","","","","","","","","","","","","","","","",""
"null","audio/beep-329314.mp3","null","audio-keyboard-response","293","2.1.0","1082316","J=YES, F=NO","x8j70bprwe","1","81","83","80","","","","","","","","","","","","","","","",""
"null","audio/kettle1.wav","null","audio-keyboard-response","294","2.1.0","1082765","J=YES, F=NO","x8j70bprwe","1","81","83","80","","","","","","","","","","","","","","","",""
"630","
          <p id=""word"" style=""font-size: 40px;"">wrap</p>
          <p style=""font-size: 16px;"">J = YES &nbsp;&nbsp;&nbsp; F = NO</p>
        ","j","html-keyboard-response","295","2.1.0","1083397","J=YES, F=NO","x8j70bprwe","1","81","83","80","","","","","","","","","wrap","kettle1","filler","filler","j","true","",""
"24998","<p>Excellent! You have finished block 2 of 8.</p>
                     <p>Feel free to take a 30 second break.</p>
                     <p>Press any key when you're ready to continue.</p>"," ","html-keyboard-response","296","2.1.0","1108395","J=YES, F=NO","x8j70bprwe","1","81","83","80","","","","","","","","","","","","","","","",""
"1239","<p>Starting main block 3 of 8. Press any key to continue.</p>"," ","html-keyboard-response","297","2.1.0","1109634","J=YES, F=NO","x8j70bprwe","1","81","83","80","","","","","","","","","","","","","","","",""
"null","<p style=""font-size: 50px;"">+</p>","null","html-keyboard-response","298","2.1.0","1109939","J=YES, F=NO","x8j70bprwe","1","81","83","80","","","","","","","","","","","","","","","",""
"null","audio/beep-329314.mp3","null","audio-keyboard-response","299","2.1.0","1111493","J=YES, F=NO","x8j70bprwe","1","81","83","80","","","","","","","","","","","","","","","",""
"null","audio/mouth1.wav","null","audio-keyboard-response","300","2.1.0","1112053","J=YES, F=NO","x8j70bprwe","1","81","83","80","","","","","","","","","","","","","","","",""
"596","
          <p id=""word"" style=""font-size: 40px;"">close</p>
          <p style=""font-size: 16px;"">J = YES &nbsp;&nbsp;&nbsp; F = NO</p>
        ","j","html-keyboard-response","301","2.1.0","1112649","J=YES, F=NO","x8j70bprwe","1","81","83","80","","","","","","","","","close","mouth1","literal","experimental","j","true","",""
"null","<p style=""font-size: 50px;"">+</p>","null","html-keyboard-response","302","2.1.0","1112966","J=YES, F=NO","x8j70bprwe","1","81","83","80","","","","","","","","","","","","","","","",""
"null","audio/beep-329314.mp3","null","audio-keyboard-response","303","2.1.0","1114527","J=YES, F=NO","x8j70bprwe","1","81","83","80","","","","","","","","","","","","","","","",""
"null","audio/fear.wav","null","audio-keyboard-response","304","2.1.0","1115057","J=YES, F=NO","x8j70bprwe","1","81","83","80","","","","","","","","","","","","","","","",""
"501","
          <p id=""word"" style=""font-size: 40px;"">spread</p>
          <p style=""font-size: 16px;"">J = YES &nbsp;&nbsp;&nbsp; F = NO</p>
        ","j","html-keyboard-response","305","2.1.0","1115560","J=YES, F=NO","x8j70bprwe","1","81","83","80","","","","","","","","","spread","fear","metaphor","experimental","j","true","",""
"null","<p style=""font-size: 50px;"">+</p>","null","html-keyboard-response","306","2.1.0","1115863","J=YES, F=NO","x8j70bprwe","1","81","83","80","","","","","","","","","","","","","","","",""
"null","audio/beep-329314.mp3","null","audio-keyboard-response","307","2.1.0","1117386","J=YES, F=NO","x8j70bprwe","1","81","83","80","","","","","","","","","","","","","","","",""
"null","audio/show.wav","null","audio-keyboard-response","308","2.1.0","1117891","J=YES, F=NO","x8j70bprwe","1","81","83","80","","","","","","","","","","","","","","","",""
"846","
          <p id=""word"" style=""font-size: 40px;"">smark</p>
          <p style=""font-size: 16px;"">J = YES &nbsp;&nbsp;&nbsp; F = NO</p>
        ","f","html-keyboard-response","309","2.1.0","1118737","J=YES, F=NO","x8j70bprwe","1","81","83","80","","","","","","","","","smark","show","pseudoword","pseudoword","f","true","",""
"null","<p style=""font-size: 50px;"">+</p>","null","html-keyboard-response","310","2.1.0","1119051","J=YES, F=NO","x8j70bprwe","1","81","83","80","","","","","","","","","","","","","","","",""
"null","audio/beep-329314.mp3","null","audio-keyboard-response","311","2.1.0","1120556","J=YES, F=NO","x8j70bprwe","1","81","83","80","","","","","","","","","","","","","","","",""
"null","audio/uncle1.wav","null","audio-keyboard-response","312","2.1.0","1121000","J=YES, F=NO","x8j70bprwe","1","81","83","80","","","","","","","","","","","","","","","",""
"523","
          <p id=""word"" style=""font-size: 40px;"">break</p>
          <p style=""font-size: 16px;"">J = YES &nbsp;&nbsp;&nbsp; F = NO</p>
        ","j","html-keyboard-response","313","2.1.0","1121523","J=YES, F=NO","x8j70bprwe","1","81","83","80","","","","","","","","","break","uncle1","unrelated","experimental","j","true","",""
"null","<p style=""font-size: 50px;"">+</p>","null","html-keyboard-response","314","2.1.0","1121828","J=YES, F=NO","x8j70bprwe","1","81","83","80","","","","","","","","","","","","","","","",""
"null","audio/beep-329314.mp3","null","audio-keyboard-response","315","2.1.0","1123360","J=YES, F=NO","x8j70bprwe","1","81","83","80","","","","","","","","","","","","","","","",""
"null","audio/cancer1.wav","null","audio-keyboard-response","316","2.1.0","1123920","J=YES, F=NO","x8j70bprwe","1","81","83","80","","","","","","","","","","","","","","","",""
"472","
          <p id=""word"" style=""font-size: 40px;"">fight</p>
          <p style=""font-size: 16px;"">J = YES &nbsp;&nbsp;&nbsp; F = NO</p>
        ","j","html-keyboard-response","317","2.1.0","1124393","J=YES, F=NO","x8j70bprwe","1","81","83","80","","","","","","","","","fight","cancer1","metaphor","experimental","j","true","",""
"null","<p style=""font-size: 50px;"">+</p>","null","html-keyboard-response","318","2.1.0","1124704","J=YES, F=NO","x8j70bprwe","1","81","83","80","","","","","","","","","","","","","","","",""
"null","audio/beep-329314.mp3","null","audio-keyboard-response","319","2.1.0","1126265","J=YES, F=NO","x8j70bprwe","1","81","83","80","","","","","","","","","","","","","","","",""
"null","audio/hawk1.wav","null","audio-keyboard-response","320","2.1.0","1126865","J=YES, F=NO","x8j70bprwe","1","81","83","80","","","","","","","","","","","","","","","",""
"692","
          <p id=""word"" style=""font-size: 40px;"">ostach</p>
          <p style=""font-size: 16px;"">J = YES &nbsp;&nbsp;&nbsp; F = NO</p>
        ","f","html-keyboard-response","321","2.1.0","1127558","J=YES, F=NO","x8j70bprwe","1","81","83","80","","","","","","","","","ostach","hawk1","pseudoword","pseudoword","f","true","",""
"null","<p style=""font-size: 50px;"">+</p>","null","html-keyboard-response","322","2.1.0","1127911","J=YES, F=NO","x8j70bprwe","1","81","83","80","","","","","","","","","","","","","","","",""
"null","audio/beep-329314.mp3","null","audio-keyboard-response","323","2.1.0","1129434","J=YES, F=NO","x8j70bprwe","1","81","83","80","","","","","","","","","","","","","","","",""
"null","audio/survey1.wav","null","audio-keyboard-response","324","2.1.0","1130154","J=YES, F=NO","x8j70bprwe","1","81","83","80","","","","","","","","","","","","","","","",""
"493","
          <p id=""word"" style=""font-size: 40px;"">release</p>
          <p style=""font-size: 16px;"">J = YES &nbsp;&nbsp;&nbsp; F = NO</p>
        ","j","html-keyboard-response","325","2.1.0","1130647","J=YES, F=NO","x8j70bprwe","1","81","83","80","","","","","","","","","release","survey1","metaphor","experimental","j","true","",""
"null","<p style=""font-size: 50px;"">+</p>","null","html-keyboard-response","326","2.1.0","1130959","J=YES, F=NO","x8j70bprwe","1","81","83","80","","","","","","","","","","","","","","","",""
"null","audio/beep-329314.mp3","null","audio-keyboard-response","327","2.1.0","1132500","J=YES, F=NO","x8j70bprwe","1","81","83","80","","","","","","","","","","","","","","","",""
"null","audio/bush1.wav","null","audio-keyboard-response","328","2.1.0","1132997","J=YES, F=NO","x8j70bprwe","1","81","83","80","","","","","","","","","","","","","","","",""
"725","
          <p id=""word"" style=""font-size: 40px;"">platined</p>
          <p style=""font-size: 16px;"">J = YES &nbsp;&nbsp;&nbsp; F = NO</p>
        ","f","html-keyboard-response","329","2.1.0","1133722","J=YES, F=NO","x8j70bprwe","1","81","83","80","","","","","","","","","platined","bush1","pseudoword","pseudoword","f","true","",""
"null","<p style=""font-size: 50px;"">+</p>","null","html-keyboard-response","330","2.1.0","1134036","J=YES, F=NO","x8j70bprwe","1","81","83","80","","","","","","","","","","","","","","","",""
"null","audio/beep-329314.mp3","null","audio-keyboard-response","331","2.1.0","1135566","J=YES, F=NO","x8j70bprwe","1","81","83","80","","","","","","","","","","","","","","","",""
"null","audio/gossip1.wav","null","audio-keyboard-response","332","2.1.0","1136163","J=YES, F=NO","x8j70bprwe","1","81","83","80","","","","","","","","","","","","","","","",""
"860","
          <p id=""word"" style=""font-size: 40px;"">camerish</p>
          <p style=""font-size: 16px;"">J = YES &nbsp;&nbsp;&nbsp; F = NO</p>
        ","f","html-keyboard-response","333","2.1.0","1137023","J=YES, F=NO","x8j70bprwe","1","81","83","80","","","","","","","","","camerish","gossip1","pseudoword","pseudoword","f","true","",""
"null","<p style=""font-size: 50px;"">+</p>","null","html-keyboard-response","334","2.1.0","1137334","J=YES, F=NO","x8j70bprwe","1","81","83","80","","","","","","","","","","","","","","","",""
"null","audio/beep-329314.mp3","null","audio-keyboard-response","335","2.1.0","1138844","J=YES, F=NO","x8j70bprwe","1","81","83","80","","","","","","","","","","","","","","","",""
"null","audio/scar.wav","null","audio-keyboard-response","336","2.1.0","1139448","J=YES, F=NO","x8j70bprwe","1","81","83","80","","","","","","","","","","","","","","","",""
"754","
          <p id=""word"" style=""font-size: 40px;"">adelineate</p>
          <p style=""font-size: 16px;"">J = YES &nbsp;&nbsp;&nbsp; F = NO</p>
        ","f","html-keyboard-response","337","2.1.0","1140203","J=YES, F=NO","x8j70bprwe","1","81","83","80","","","","","","","","","adelineate","scar","pseudoword","pseudoword","f","true","",""
"null","<p style=""font-size: 50px;"">+</p>","null","html-keyboard-response","338","2.1.0","1140528","J=YES, F=NO","x8j70bprwe","1","81","83","80","","","","","","","","","","","","","","","",""
"null","audio/beep-329314.mp3","null","audio-keyboard-response","339","2.1.0","1142051","J=YES, F=NO","x8j70bprwe","1","81","83","80","","","","","","","","","","","","","","","",""
"null","audio/hotel1.wav","null","audio-keyboard-response","340","2.1.0","1142651","J=YES, F=NO","x8j70bprwe","1","81","83","80","","","","","","","","","","","","","","","",""
"832","
          <p id=""word"" style=""font-size: 40px;"">flanter</p>
          <p style=""font-size: 16px;"">J = YES &nbsp;&nbsp;&nbsp; F = NO</p>
        ","j","html-keyboard-response","341","2.1.0","1143485","J=YES, F=NO","x8j70bprwe","1","81","83","80","","","","","","","","","flanter","hotel1","pseudoword","pseudoword","f","false","",""
"null","<p style=""font-size: 50px;"">+</p>","null","html-keyboard-response","342","2.1.0","1143798","J=YES, F=NO","x8j70bprwe","1","81","83","80","","","","","","","","","","","","","","","",""
"null","audio/beep-329314.mp3","null","audio-keyboard-response","343","2.1.0","1145321","J=YES, F=NO","x8j70bprwe","1","81","83","80","","","","","","","","","","","","","","","",""
"null","audio/breath.wav","null","audio-keyboard-response","344","2.1.0","1145881","J=YES, F=NO","x8j70bprwe","1","81","83","80","","","","","","","","","","","","","","","",""
"801","
          <p id=""word"" style=""font-size: 40px;"">construct</p>
          <p style=""font-size: 16px;"">J = YES &nbsp;&nbsp;&nbsp; F = NO</p>
        ","j","html-keyboard-response","345","2.1.0","1146682","J=YES, F=NO","x8j70bprwe","1","81","83","80","","","","","","","","","construct","breath","unrelated","experimental","j","true","",""
"null","<p style=""font-size: 50px;"">+</p>","null","html-keyboard-response","346","2.1.0","1146987","J=YES, F=NO","x8j70bprwe","1","81","83","80","","","","","","","","","","","","","","","",""
"null","audio/beep-329314.mp3","null","audio-keyboard-response","347","2.1.0","1148550","J=YES, F=NO","x8j70bprwe","1","81","83","80","","","","","","","","","","","","","","","",""
"null","audio/topic.wav","null","audio-keyboard-response","348","2.1.0","1149098","J=YES, F=NO","x8j70bprwe","1","81","83","80","","","","","","","","","","","","","","","",""
"619","
          <p id=""word"" style=""font-size: 40px;"">approach</p>
          <p style=""font-size: 16px;"">J = YES &nbsp;&nbsp;&nbsp; F = NO</p>
        ","j","html-keyboard-response","349","2.1.0","1149717","J=YES, F=NO","x8j70bprwe","1","81","83","80","","","","","","","","","approach","topic","metaphor","experimental","j","true","",""
"null","<p style=""font-size: 50px;"">+</p>","null","html-keyboard-response","350","2.1.0","1150033","J=YES, F=NO","x8j70bprwe","1","81","83","80","","","","","","","","","","","","","","","",""
"null","audio/beep-329314.mp3","null","audio-keyboard-response","351","2.1.0","1151576","J=YES, F=NO","x8j70bprwe","1","81","83","80","","","","","","","","","","","","","","","",""
"null","audio/alarm1.wav","null","audio-keyboard-response","352","2.1.0","1152120","J=YES, F=NO","x8j70bprwe","1","81","83","80","","","","","","","","","","","","","","","",""
"833","
          <p id=""word"" style=""font-size: 40px;"">swetp</p>
          <p style=""font-size: 16px;"">J = YES &nbsp;&nbsp;&nbsp; F = NO</p>
        ","f","html-keyboard-response","353","2.1.0","1152954","J=YES, F=NO","x8j70bprwe","1","81","83","80","","","","","","","","","swetp","alarm1","pseudoword","pseudoword","f","true","",""
"null","<p style=""font-size: 50px;"">+</p>","null","html-keyboard-response","354","2.1.0","1153258","J=YES, F=NO","x8j70bprwe","1","81","83","80","","","","","","","","","","","","","","","",""
"null","audio/beep-329314.mp3","null","audio-keyboard-response","355","2.1.0","1154790","J=YES, F=NO","x8j70bprwe","1","81","83","80","","","","","","","","","","","","","","","",""
"null","audio/tunnel.wav","null","audio-keyboard-response","356","2.1.0","1155196","J=YES, F=NO","x8j70bprwe","1","81","83","80","","","","","","","","","","","","","","","",""
"796","
          <p id=""word"" style=""font-size: 40px;"">gred</p>
          <p style=""font-size: 16px;"">J = YES &nbsp;&nbsp;&nbsp; F = NO</p>
        ","f","html-keyboard-response","357","2.1.0","1155992","J=YES, F=NO","x8j70bprwe","1","81","83","80","","","","","","","","","gred","tunnel","pseudoword","pseudoword","f","true","",""
"null","<p style=""font-size: 50px;"">+</p>","null","html-keyboard-response","358","2.1.0","1156299","J=YES, F=NO","x8j70bprwe","1","81","83","80","","","","","","","","","","","","","","","",""
"null","audio/beep-329314.mp3","null","audio-keyboard-response","359","2.1.0","1157862","J=YES, F=NO","x8j70bprwe","1","81","83","80","","","","","","","","","","","","","","","",""
"null","audio/table1.wav","null","audio-keyboard-response","360","2.1.0","1158361","J=YES, F=NO","x8j70bprwe","1","81","83","80","","","","","","","","","","","","","","","",""
"746","
          <p id=""word"" style=""font-size: 40px;"">stimb</p>
          <p style=""font-size: 16px;"">J = YES &nbsp;&nbsp;&nbsp; F = NO</p>
        ","f","html-keyboard-response","361","2.1.0","1159108","J=YES, F=NO","x8j70bprwe","1","81","83","80","","","","","","","","","stimb","table1","pseudoword","pseudoword","f","true","",""
"1363","<p>Excellent! You have finished block 3 of 8.</p>
                     <p>Feel free to take a 30 second break.</p>
                     <p>Press any key when you're ready to continue.</p>"," ","html-keyboard-response","362","2.1.0","1160473","J=YES, F=NO","x8j70bprwe","1","81","83","80","","","","","","","","","","","","","","","",""
"728","<p>Starting main block 4 of 8. Press any key to continue.</p>"," ","html-keyboard-response","363","2.1.0","1161202","J=YES, F=NO","x8j70bprwe","1","81","83","80","","","","","","","","","","","","","","","",""
"null","<p style=""font-size: 50px;"">+</p>","null","html-keyboard-response","364","2.1.0","1161515","J=YES, F=NO","x8j70bprwe","1","81","83","80","","","","","","","","","","","","","","","",""
"null","audio/beep-329314.mp3","null","audio-keyboard-response","365","2.1.0","1163059","J=YES, F=NO","x8j70bprwe","1","81","83","80","","","","","","","","","","","","","","","",""
"null","audio/arm.wav","null","audio-keyboard-response","366","2.1.0","1163600","J=YES, F=NO","x8j70bprwe","1","81","83","80","","","","","","","","","","","","","","","",""
"736","
          <p id=""word"" style=""font-size: 40px;"">fold</p>
          <p style=""font-size: 16px;"">J = YES &nbsp;&nbsp;&nbsp; F = NO</p>
        ","j","html-keyboard-response","367","2.1.0","1164336","J=YES, F=NO","x8j70bprwe","1","81","83","80","","","","","","","","","fold","arm","filler","filler","j","true","",""
"null","<p style=""font-size: 50px;"">+</p>","null","html-keyboard-response","368","2.1.0","1164642","J=YES, F=NO","x8j70bprwe","1","81","83","80","","","","","","","","","","","","","","","",""
"null","audio/beep-329314.mp3","null","audio-keyboard-response","369","2.1.0","1166175","J=YES, F=NO","x8j70bprwe","1","81","83","80","","","","","","","","","","","","","","","",""
"null","audio/emotion.wav","null","audio-keyboard-response","370","2.1.0","1166864","J=YES, F=NO","x8j70bprwe","1","81","83","80","","","","","","","","","","","","","","","",""
"837","
          <p id=""word"" style=""font-size: 40px;"">devering</p>
          <p style=""font-size: 16px;"">J = YES &nbsp;&nbsp;&nbsp; F = NO</p>
        ","f","html-keyboard-response","371","2.1.0","1167703","J=YES, F=NO","x8j70bprwe","1","81","83","80","","","","","","","","","devering","emotion","pseudoword","pseudoword","f","true","",""
"null","<p style=""font-size: 50px;"">+</p>","null","html-keyboard-response","372","2.1.0","1168032","J=YES, F=NO","x8j70bprwe","1","81","83","80","","","","","","","","","","","","","","","",""
"null","audio/beep-329314.mp3","null","audio-keyboard-response","373","2.1.0","1169555","J=YES, F=NO","x8j70bprwe","1","81","83","80","","","","","","","","","","","","","","","",""
"null","audio/tomato.wav","null","audio-keyboard-response","374","2.1.0","1170240","J=YES, F=NO","x8j70bprwe","1","81","83","80","","","","","","","","","","","","","","","",""
"559","
          <p id=""word"" style=""font-size: 40px;"">gladies</p>
          <p style=""font-size: 16px;"">J = YES &nbsp;&nbsp;&nbsp; F = NO</p>
        ","j","html-keyboard-response","375","2.1.0","1170800","J=YES, F=NO","x8j70bprwe","1","81","83","80","","","","","","","","","gladies","tomato","pseudoword","pseudoword","f","false","",""
"null","<p style=""font-size: 50px;"">+</p>","null","html-keyboard-response","376","2.1.0","1171118","J=YES, F=NO","x8j70bprwe","1","81","83","80","","","","","","","","","","","","","","","",""
"null","audio/beep-329314.mp3","null","audio-keyboard-response","377","2.1.0","1172660","J=YES, F=NO","x8j70bprwe","1","81","83","80","","","","","","","","","","","","","","","",""
"null","audio/mile1.wav","null","audio-keyboard-response","378","2.1.0","1173141","J=YES, F=NO","x8j70bprwe","1","81","83","80","","","","","","","","","","","","","","","",""
"464","
          <p id=""word"" style=""font-size: 40px;"">run</p>
          <p style=""font-size: 16px;"">J = YES &nbsp;&nbsp;&nbsp; F = NO</p>
        ","j","html-keyboard-response","379","2.1.0","1173606","J=YES, F=NO","x8j70bprwe","1","81","83","80","","","","","","","","","run","mile1","literal","experimental","j","true","",""
"null","<p style=""font-size: 50px;"">+</p>","null","html-keyboard-response","380","2.1.0","1173923","J=YES, F=NO","x8j70bprwe","1","81","83","80","","","","","","","","","","","","","","","",""
"null","audio/beep-329314.mp3","null","audio-keyboard-response","381","2.1.0","1175434","J=YES, F=NO","x8j70bprwe","1","81","83","80","","","","","","","","","","","","","","","",""
"null","audio/dollar.wav","null","audio-keyboard-response","382","2.1.0","1175791","J=YES, F=NO","x8j70bprwe","1","81","83","80","","","","","","","","","","","","","","","",""
"651","
          <p id=""word"" style=""font-size: 40px;"">gliptism</p>
          <p style=""font-size: 16px;"">J = YES &nbsp;&nbsp;&nbsp; F = NO</p>
        ","f","html-keyboard-response","383","2.1.0","1176441","J=YES, F=NO","x8j70bprwe","1","81","83","80","","","","","","","","","gliptism","dollar","pseudoword","pseudoword","f","true","",""
"null","<p style=""font-size: 50px;"">+</p>","null","html-keyboard-response","384","2.1.0","1176753","J=YES, F=NO","x8j70bprwe","1","81","83","80","","","","","","","","","","","","","","","",""
"null","audio/beep-329314.mp3","null","audio-keyboard-response","385","2.1.0","1178274","J=YES, F=NO","x8j70bprwe","1","81","83","80","","","","","","","","","","","","","","","",""
"null","audio/planet1.wav","null","audio-keyboard-response","386","2.1.0","1178874","J=YES, F=NO","x8j70bprwe","1","81","83","80","","","","","","","","","","","","","","","",""
"444","
          <p id=""word"" style=""font-size: 40px;"">save</p>
          <p style=""font-size: 16px;"">J = YES &nbsp;&nbsp;&nbsp; F = NO</p>
        ","j","html-keyboard-response","387","2.1.0","1179319","J=YES, F=NO","x8j70bprwe","1","81","83","80","","","","","","","","","save","planet1","metaphor","experimental","j","true","",""
"null","<p style=""font-size: 50px;"">+</p>","null","html-keyboard-response","388","2.1.0","1179620","J=YES, F=NO","x8j70bprwe","1","81","83","80","","","","","","","","","","","","","","","",""
"null","audio/beep-329314.mp3","null","audio-keyboard-response","389","2.1.0","1181183","J=YES, F=NO","x8j70bprwe","1","81","83","80","","","","","","","","","","","","","","","",""
"null","audio/bishop1.wav","null","audio-keyboard-response","390","2.1.0","1181792","J=YES, F=NO","x8j70bprwe","1","81","83","80","","","","","","","","","","","","","","","",""
"457","
