"rt","stimulus","response","trial_type","trial_index","plugin_version","time_elapsed","response_mapping","subject_id","list_index","lextale_score","lextale_word_score","lextale_nonword_score","success","timeout","failed_images","failed_audio","failed_video","task","isWord","isDummy","target","prime","prime_type","stimulus_type","correct_response","correct","section","question_order"
"2886","
    <div style=""max-width: 800px; margin: auto; text-align: left;"">
      <h2>STANFORD UNIVERSITY</h2>
      <h3>Research Information Sheet</h3>
      <p><strong>Protocol Director:</strong> Robert Hawkins<br>
      <strong>Protocol Title:</strong> Communication and social cognition in natural audiovisual contexts<br>
      <strong>IRB#:</strong> 77226</p>

      <p><strong>DESCRIPTION:</strong> You are invited to participate in a research study about language and communication. The purpose of the research is to understand how you interact and communicate with other people in naturalistic settings as a fluent English speaker. This research will be conducted through the Prolific platform, including participants from the US, UK, and Canada. If you decide to participate in this research, you will play a communication game in a group with one or more partners.</p>

      <p><strong>TIME INVOLVEMENT:</strong> The task will last the amount of time advertised on Prolific. You are free to withdraw from the study at any time.</p>

      <p><strong>RISKS AND BENEFITS:</strong> You may become frustrated if your partner gets distracted, or experience discomfort if other participants in your group send text that is inappropriate for the task. We ask you to please be respectful of other participants you might be interacting with to mitigate these risks. You may also experience discomfort when being asked to discuss or challenge emotionally salient political beliefs. Study data will be stored securely, in compliance with Stanford University standards, minimizing the risk of confidentiality breach. This study advances our scientific understanding of how people communicate and collaborate in naturalistic settings. This study may lead to further insights about what can go wrong in teamwork, suggest potential interventions to overcome these barriers, and help to develop assistive technologies that collaborate with human partners. We cannot and do not guarantee or promise that you will receive any benefits from this study.</p>

      <p><strong>PAYMENTS:</strong> You will receive payment in the amount advertised on Prolific. If you do not complete this study, you will receive prorated payment based on the time that you have spent. Additionally, you may be eligible for bonus payments as described in the instructions.</p>

      <p><strong>PARTICIPANT’S RIGHTS:</strong> If you have read this form and have decided to participate in this project, please understand your participation is voluntary and you have the right to withdraw your consent or discontinue participation at any time without penalty or loss of benefits to which you are otherwise entitled. The alternative is not to participate. You have the right to refuse to answer particular questions. The results of this research study may be presented at scientific or professional meetings or published in scientific journals. Your individual privacy will be maintained in all published and written data resulting from the study. In accordance with scientific norms, the data from this study may be used or shared with other researchers for future research (after removing personally identifying information) without additional consent from you.</p>

      <p><strong>CONTACT INFORMATION:</strong><br>
      Questions: If you have any questions, concerns or complaints about this research, its procedures, risks and benefits, contact the Protocol Director, Robert Hawkins (<a href=""mailto:rdhawkins@stanford.edu"">rdhawkins@stanford.edu</a>, 217-549-6923).<br>
      Independent Contact: If you are not satisfied with how this study is being conducted, or if you have any concerns, complaints, or general questions about the research or your rights as a participant, please contact the Stanford Institutional Review Board (IRB) to speak to someone independent of the research team at 650-723-2480 or toll free at 1-866-680-2906, or email at <a href=""mailto:irbnon-med@stanford.edu"">irbnon-med@stanford.edu</a>. You can also write to the Stanford IRB, Stanford University, 1705 El Camino Real, Palo Alto, CA 94306.</p>

      <p><strong>Please save or print a copy of this page for your records.</strong></p>
      <p>If you agree to participate in this research, click ""Continue"" below.</p>
    </div>
  ","0","html-button-response","0","2.1.0","2893","F=YES, J=NO","xaqujhs69k","2","68","70","65","","","","","","","","","","","","","","","",""
"3267","
    <div style=""max-width: 800px; margin: auto; text-align: left;"">
      <h2>Welcome!</h2>
      <p>Thank you for participating in this study. The experiment consists of three parts:</p>
      <ol>
        <li>An English vocabulary test</li>
        <li>A main task in which you will hear and see words, and decide whether the written word is a real English word</li>
        <li>A brief survey about your background</li>
      </ol>
      <p>Each part will be introduced before it begins.</p>
      <p>Please make sure you are in a quiet environment and can hear audio clearly for the final task.</p>
      <p style=""margin-top: 2em;"">Press any key to begin.</p>
    </div>
  "," ","html-keyboard-response","1","2.1.0","6162","F=YES, J=NO","xaqujhs69k","2","68","70","65","","","","","","","","","","","","","","","",""
"","","","preload","2","2.1.0","7409","F=YES, J=NO","xaqujhs69k","2","68","70","65","true","false","[]","[]","[]","","","","","","","","","","",""
"11449","
    <div style=""max-width: 800px; margin: auto; text-align: left;"">
      <h2>Part 1: Vocabulary Test</h2>
      <p>You will now complete the first part of the study: a short English vocabulary test.</p>
      <p>This test is called <strong>LexTALE</strong> and helps us get a general sense of your English proficiency.</p>
      <p style=""margin-top: 2em;"">Press any key to continue.</p>
    </div>
  "," ","html-keyboard-response","3","2.1.0","18859","F=YES, J=NO","xaqujhs69k","2","68","70","65","","","","","","","","","","","","","","","",""
"10169","
    <div style=""max-width: 800px; margin: auto; text-align: left;"">
      <h2>LexTALE Vocabulary Test</h2>
      <p>In this test, you will see a series of letter strings—one at a time.</p>
      <p>Your task is to decide whether each string is a real English word.</p>
      <p><strong>Key responses:</strong></p>
      <ul>
        <li><strong>F</strong> = YES (real English word)</li>
        <li><strong>J</strong> = NO (not a real English word)</li>
      </ul>
      <p>There is no time limit, but please try to be accurate.</p>
      <p style=""margin-top: 2em;"">Press any key to begin.</p>
    </div>
  "," ","html-keyboard-response","4","2.1.0","29029","F=YES, J=NO","xaqujhs69k","2","68","70","65","","","","","","","","","","","","","","","",""
"1503","
  <p style=""font-size: 40px;"">platery</p>
  <p style=""font-size: 16px;"">F = YES &nbsp;&nbsp;&nbsp; J = NO</p>
","f","html-keyboard-response","5","2.1.0","30533","F=YES, J=NO","xaqujhs69k","2","68","70","65","","","","","","lextale","false","true","","","","","","","",""
"832","
  <p style=""font-size: 40px;"">denial</p>
  <p style=""font-size: 16px;"">F = YES &nbsp;&nbsp;&nbsp; J = NO</p>
","f","html-keyboard-response","6","2.1.0","31365","F=YES, J=NO","xaqujhs69k","2","68","70","65","","","","","","lextale","true","true","","","","","","","",""
"1544","
  <p style=""font-size: 40px;"">marrit</p>
  <p style=""font-size: 16px;"">F = YES &nbsp;&nbsp;&nbsp; J = NO</p>
","f","html-keyboard-response","7","2.1.0","32909","F=YES, J=NO","xaqujhs69k","2","68","70","65","","","","","","lextale","false","true","","","","","","","",""
"703","
  <p style=""font-size: 40px;"">bottle</p>
  <p style=""font-size: 16px;"">F = YES &nbsp;&nbsp;&nbsp; J = NO</p>
","f","html-keyboard-response","8","2.1.0","33613","F=YES, J=NO","xaqujhs69k","2","68","70","65","","","","","","lextale","true","false","","","","","","","",""
"2040","
  <p style=""font-size: 40px;"">birst</p>
  <p style=""font-size: 16px;"">F = YES &nbsp;&nbsp;&nbsp; J = NO</p>
","j","html-keyboard-response","9","2.1.0","35653","F=YES, J=NO","xaqujhs69k","2","68","70","65","","","","","","lextale","false","false","","","","","","","",""
"719","
  <p style=""font-size: 40px;"">envy</p>
  <p style=""font-size: 16px;"">F = YES &nbsp;&nbsp;&nbsp; J = NO</p>
","f","html-keyboard-response","10","2.1.0","36373","F=YES, J=NO","xaqujhs69k","2","68","70","65","","","","","","lextale","true","false","","","","","","","",""
"1712","
  <p style=""font-size: 40px;"">brang</p>
  <p style=""font-size: 16px;"">F = YES &nbsp;&nbsp;&nbsp; J = NO</p>
","j","html-keyboard-response","11","2.1.0","38086","F=YES, J=NO","xaqujhs69k","2","68","70","65","","","","","","lextale","false","false","","","","","","","",""
"647","
  <p style=""font-size: 40px;"">huge</p>
  <p style=""font-size: 16px;"">F = YES &nbsp;&nbsp;&nbsp; J = NO</p>
","f","html-keyboard-response","12","2.1.0","38734","F=YES, J=NO","xaqujhs69k","2","68","70","65","","","","","","lextale","true","false","","","","","","","",""
"1072","
  <p style=""font-size: 40px;"">plove</p>
  <p style=""font-size: 16px;"">F = YES &nbsp;&nbsp;&nbsp; J = NO</p>
","j","html-keyboard-response","13","2.1.0","39806","F=YES, J=NO","xaqujhs69k","2","68","70","65","","","","","","lextale","false","false","","","","","","","",""
"592","
  <p style=""font-size: 40px;"">border</p>
  <p style=""font-size: 16px;"">F = YES &nbsp;&nbsp;&nbsp; J = NO</p>
","f","html-keyboard-response","14","2.1.0","40398","F=YES, J=NO","xaqujhs69k","2","68","70","65","","","","","","lextale","true","false","","","","","","","",""
"2440","
  <p style=""font-size: 40px;"">flimsy</p>
  <p style=""font-size: 16px;"">F = YES &nbsp;&nbsp;&nbsp; J = NO</p>
","j","html-keyboard-response","15","2.1.0","42838","F=YES, J=NO","xaqujhs69k","2","68","70","65","","","","","","lextale","true","false","","","","","","","",""
"528","
  <p style=""font-size: 40px;"">drain</p>
  <p style=""font-size: 16px;"">F = YES &nbsp;&nbsp;&nbsp; J = NO</p>
","f","html-keyboard-response","16","2.1.0","43367","F=YES, J=NO","xaqujhs69k","2","68","70","65","","","","","","lextale","true","false","","","","","","","",""
"887","
  <p style=""font-size: 40px;"">twindle</p>
  <p style=""font-size: 16px;"">F = YES &nbsp;&nbsp;&nbsp; J = NO</p>
","f","html-keyboard-response","17","2.1.0","44254","F=YES, J=NO","xaqujhs69k","2","68","70","65","","","","","","lextale","false","false","","","","","","","",""
"576","
  <p style=""font-size: 40px;"">propose</p>
  <p style=""font-size: 16px;"">F = YES &nbsp;&nbsp;&nbsp; J = NO</p>
","f","html-keyboard-response","18","2.1.0","44830","F=YES, J=NO","xaqujhs69k","2","68","70","65","","","","","","lextale","true","false","","","","","","","",""
"968","
  <p style=""font-size: 40px;"">forlay</p>
  <p style=""font-size: 16px;"">F = YES &nbsp;&nbsp;&nbsp; J = NO</p>
","j","html-keyboard-response","19","2.1.0","45799","F=YES, J=NO","xaqujhs69k","2","68","70","65","","","","","","lextale","false","false","","","","","","","",""
"1191","
  <p style=""font-size: 40px;"">tenant</p>
  <p style=""font-size: 16px;"">F = YES &nbsp;&nbsp;&nbsp; J = NO</p>
","f","html-keyboard-response","20","2.1.0","46991","F=YES, J=NO","xaqujhs69k","2","68","70","65","","","","","","lextale","true","false","","","","","","","",""
"704","
  <p style=""font-size: 40px;"">strain</p>
  <p style=""font-size: 16px;"">F = YES &nbsp;&nbsp;&nbsp; J = NO</p>
","f","html-keyboard-response","21","2.1.0","47695","F=YES, J=NO","xaqujhs69k","2","68","70","65","","","","","","lextale","true","false","","","","","","","",""
"880","
  <p style=""font-size: 40px;"">holster</p>
  <p style=""font-size: 16px;"">F = YES &nbsp;&nbsp;&nbsp; J = NO</p>
","f","html-keyboard-response","22","2.1.0","48575","F=YES, J=NO","xaqujhs69k","2","68","70","65","","","","","","lextale","true","false","","","","","","","",""
"551","
  <p style=""font-size: 40px;"">hinder</p>
  <p style=""font-size: 16px;"">F = YES &nbsp;&nbsp;&nbsp; J = NO</p>
","f","html-keyboard-response","23","2.1.0","49127","F=YES, J=NO","xaqujhs69k","2","68","70","65","","","","","","lextale","true","false","","","","","","","",""
"1088","
  <p style=""font-size: 40px;"">swindle</p>
  <p style=""font-size: 16px;"">F = YES &nbsp;&nbsp;&nbsp; J = NO</p>
","f","html-keyboard-response","24","2.1.0","50216","F=YES, J=NO","xaqujhs69k","2","68","70","65","","","","","","lextale","true","false","","","","","","","",""
"1151","
  <p style=""font-size: 40px;"">nuder</p>
  <p style=""font-size: 16px;"">F = YES &nbsp;&nbsp;&nbsp; J = NO</p>
","j","html-keyboard-response","25","2.1.0","51367","F=YES, J=NO","xaqujhs69k","2","68","70","65","","","","","","lextale","false","false","","","","","","","",""
"832","
  <p style=""font-size: 40px;"">pillow</p>
  <p style=""font-size: 16px;"">F = YES &nbsp;&nbsp;&nbsp; J = NO</p>
","f","html-keyboard-response","26","2.1.0","52200","F=YES, J=NO","xaqujhs69k","2","68","70","65","","","","","","lextale","true","false","","","","","","","",""
"791","
  <p style=""font-size: 40px;"">shumble</p>
  <p style=""font-size: 16px;"">F = YES &nbsp;&nbsp;&nbsp; J = NO</p>
","f","html-keyboard-response","27","2.1.0","52992","F=YES, J=NO","xaqujhs69k","2","68","70","65","","","","","","lextale","false","false","","","","","","","",""
"816","
  <p style=""font-size: 40px;"">thirst</p>
  <p style=""font-size: 16px;"">F = YES &nbsp;&nbsp;&nbsp; J = NO</p>
","f","html-keyboard-response","28","2.1.0","53808","F=YES, J=NO","xaqujhs69k","2","68","70","65","","","","","","lextale","true","false","","","","","","","",""
"1696","
  <p style=""font-size: 40px;"">unsail</p>
  <p style=""font-size: 16px;"">F = YES &nbsp;&nbsp;&nbsp; J = NO</p>
","f","html-keyboard-response","29","2.1.0","55504","F=YES, J=NO","xaqujhs69k","2","68","70","65","","","","","","lextale","false","false","","","","","","","",""
"752","
  <p style=""font-size: 40px;"">rifle</p>
  <p style=""font-size: 16px;"">F = YES &nbsp;&nbsp;&nbsp; J = NO</p>
","f","html-keyboard-response","30","2.1.0","56256","F=YES, J=NO","xaqujhs69k","2","68","70","65","","","","","","lextale","true","false","","","","","","","",""
"4081","
  <p style=""font-size: 40px;"">mush</p>
  <p style=""font-size: 16px;"">F = YES &nbsp;&nbsp;&nbsp; J = NO</p>
","j","html-keyboard-response","31","2.1.0","60337","F=YES, J=NO","xaqujhs69k","2","68","70","65","","","","","","lextale","false","false","","","","","","","",""
"727","
  <p style=""font-size: 40px;"">drench</p>
  <p style=""font-size: 16px;"">F = YES &nbsp;&nbsp;&nbsp; J = NO</p>
","f","html-keyboard-response","32","2.1.0","61065","F=YES, J=NO","xaqujhs69k","2","68","70","65","","","","","","lextale","true","false","","","","","","","",""
"1128","
  <p style=""font-size: 40px;"">snirt</p>
  <p style=""font-size: 16px;"">F = YES &nbsp;&nbsp;&nbsp; J = NO</p>
","j","html-keyboard-response","33","2.1.0","62193","F=YES, J=NO","xaqujhs69k","2","68","70","65","","","","","","lextale","false","false","","","","","","","",""
"568","
  <p style=""font-size: 40px;"">bitter</p>
  <p style=""font-size: 16px;"">F = YES &nbsp;&nbsp;&nbsp; J = NO</p>
","f","html-keyboard-response","34","2.1.0","62761","F=YES, J=NO","xaqujhs69k","2","68","70","65","","","","","","lextale","true","false","","","","","","","",""
"1024","
  <p style=""font-size: 40px;"">pliff</p>
  <p style=""font-size: 16px;"">F = YES &nbsp;&nbsp;&nbsp; J = NO</p>
","j","html-keyboard-response","35","2.1.0","63785","F=YES, J=NO","xaqujhs69k","2","68","70","65","","","","","","lextale","false","false","","","","","","","",""
"1407","
  <p style=""font-size: 40px;"">tablet</p>
  <p style=""font-size: 16px;"">F = YES &nbsp;&nbsp;&nbsp; J = NO</p>
","f","html-keyboard-response","36","2.1.0","65193","F=YES, J=NO","xaqujhs69k","2","68","70","65","","","","","","lextale","true","false","","","","","","","",""
"704","
  <p style=""font-size: 40px;"">glimmer</p>
  <p style=""font-size: 16px;"">F = YES &nbsp;&nbsp;&nbsp; J = NO</p>
","f","html-keyboard-response","37","2.1.0","65898","F=YES, J=NO","xaqujhs69k","2","68","70","65","","","","","","lextale","true","false","","","","","","","",""
"1080","
  <p style=""font-size: 40px;"">slink</p>
  <p style=""font-size: 16px;"">F = YES &nbsp;&nbsp;&nbsp; J = NO</p>
","f","html-keyboard-response","38","2.1.0","66978","F=YES, J=NO","xaqujhs69k","2","68","70","65","","","","","","lextale","true","false","","","","","","","",""
"503","
  <p style=""font-size: 40px;"">clever</p>
  <p style=""font-size: 16px;"">F = YES &nbsp;&nbsp;&nbsp; J = NO</p>
","f","html-keyboard-response","39","2.1.0","67482","F=YES, J=NO","xaqujhs69k","2","68","70","65","","","","","","lextale","true","false","","","","","","","",""
"1040","
  <p style=""font-size: 40px;"">grum</p>
  <p style=""font-size: 16px;"">F = YES &nbsp;&nbsp;&nbsp; J = NO</p>
","f","html-keyboard-response","40","2.1.0","68522","F=YES, J=NO","xaqujhs69k","2","68","70","65","","","","","","lextale","false","false","","","","","","","",""
"927","
  <p style=""font-size: 40px;"">string</p>
  <p style=""font-size: 16px;"">F = YES &nbsp;&nbsp;&nbsp; J = NO</p>
","f","html-keyboard-response","41","2.1.0","69450","F=YES, J=NO","xaqujhs69k","2","68","70","65","","","","","","lextale","true","false","","","","","","","",""
"1232","
  <p style=""font-size: 40px;"">plim</p>
  <p style=""font-size: 16px;"">F = YES &nbsp;&nbsp;&nbsp; J = NO</p>
","j","html-keyboard-response","42","2.1.0","70683","F=YES, J=NO","xaqujhs69k","2","68","70","65","","","","","","lextale","false","false","","","","","","","",""
"583","
  <p style=""font-size: 40px;"">cable</p>
  <p style=""font-size: 16px;"">F = YES &nbsp;&nbsp;&nbsp; J = NO</p>
","f","html-keyboard-response","43","2.1.0","71266","F=YES, J=NO","xaqujhs69k","2","68","70","65","","","","","","lextale","true","false","","","","","","","",""
"1224","
  <p style=""font-size: 40px;"">shrivel</p>
  <p style=""font-size: 16px;"">F = YES &nbsp;&nbsp;&nbsp; J = NO</p>
","j","html-keyboard-response","44","2.1.0","72491","F=YES, J=NO","xaqujhs69k","2","68","70","65","","","","","","lextale","true","false","","","","","","","",""
"1136","
  <p style=""font-size: 40px;"">tarnish</p>
  <p style=""font-size: 16px;"">F = YES &nbsp;&nbsp;&nbsp; J = NO</p>
","j","html-keyboard-response","45","2.1.0","73627","F=YES, J=NO","xaqujhs69k","2","68","70","65","","","","","","lextale","true","false","","","","","","","",""
"1128","
  <p style=""font-size: 40px;"">blim</p>
  <p style=""font-size: 16px;"">F = YES &nbsp;&nbsp;&nbsp; J = NO</p>
","f","html-keyboard-response","46","2.1.0","74755","F=YES, J=NO","xaqujhs69k","2","68","70","65","","","","","","lextale","false","false","","","","","","","",""
"1240","
  <p style=""font-size: 40px;"">stifle</p>
  <p style=""font-size: 16px;"">F = YES &nbsp;&nbsp;&nbsp; J = NO</p>
","j","html-keyboard-response","47","2.1.0","75995","F=YES, J=NO","xaqujhs69k","2","68","70","65","","","","","","lextale","true","false","","","","","","","",""
"960","
  <p style=""font-size: 40px;"">bint</p>
  <p style=""font-size: 16px;"">F = YES &nbsp;&nbsp;&nbsp; J = NO</p>
","j","html-keyboard-response","48","2.1.0","76955","F=YES, J=NO","xaqujhs69k","2","68","70","65","","","","","","lextale","false","false","","","","","","","",""
"520","
  <p style=""font-size: 40px;"">purple</p>
  <p style=""font-size: 16px;"">F = YES &nbsp;&nbsp;&nbsp; J = NO</p>
","f","html-keyboard-response","49","2.1.0","77475","F=YES, J=NO","xaqujhs69k","2","68","70","65","","","","","","lextale","true","false","","","","","","","",""
"1128","
  <p style=""font-size: 40px;"">wriggle</p>
  <p style=""font-size: 16px;"">F = YES &nbsp;&nbsp;&nbsp; J = NO</p>
","f","html-keyboard-response","50","2.1.0","78603","F=YES, J=NO","xaqujhs69k","2","68","70","65","","","","","","lextale","true","false","","","","","","","",""
"928","
  <p style=""font-size: 40px;"">mangle</p>
  <p style=""font-size: 16px;"">F = YES &nbsp;&nbsp;&nbsp; J = NO</p>
","j","html-keyboard-response","51","2.1.0","79532","F=YES, J=NO","xaqujhs69k","2","68","70","65","","","","","","lextale","true","false","","","","","","","",""
"2472","
  <p style=""font-size: 40px;"">shramp</p>
  <p style=""font-size: 16px;"">F = YES &nbsp;&nbsp;&nbsp; J = NO</p>
","f","html-keyboard-response","52","2.1.0","82004","F=YES, J=NO","xaqujhs69k","2","68","70","65","","","","","","lextale","false","false","","","","","","","",""
"655","
  <p style=""font-size: 40px;"">flirt</p>
  <p style=""font-size: 16px;"">F = YES &nbsp;&nbsp;&nbsp; J = NO</p>
","f","html-keyboard-response","53","2.1.0","82660","F=YES, J=NO","xaqujhs69k","2","68","70","65","","","","","","lextale","true","false","","","","","","","",""
"1112","
  <p style=""font-size: 40px;"">frip</p>
  <p style=""font-size: 16px;"">F = YES &nbsp;&nbsp;&nbsp; J = NO</p>
","j","html-keyboard-response","54","2.1.0","83772","F=YES, J=NO","xaqujhs69k","2","68","70","65","","","","","","lextale","false","false","","","","","","","",""
"2120","
  <p style=""font-size: 40px;"">tangle</p>
  <p style=""font-size: 16px;"">F = YES &nbsp;&nbsp;&nbsp; J = NO</p>
","j","html-keyboard-response","55","2.1.0","85892","F=YES, J=NO","xaqujhs69k","2","68","70","65","","","","","","lextale","true","false","","","","","","","",""
"1104","
  <p style=""font-size: 40px;"">crumble</p>
  <p style=""font-size: 16px;"">F = YES &nbsp;&nbsp;&nbsp; J = NO</p>
","f","html-keyboard-response","56","2.1.0","86997","F=YES, J=NO","xaqujhs69k","2","68","70","65","","","","","","lextale","true","false","","","","","","","",""
"720","
  <p style=""font-size: 40px;"">wrinkle</p>
  <p style=""font-size: 16px;"">F = YES &nbsp;&nbsp;&nbsp; J = NO</p>
","f","html-keyboard-response","57","2.1.0","87717","F=YES, J=NO","xaqujhs69k","2","68","70","65","","","","","","lextale","true","false","","","","","","","",""
"999","
  <p style=""font-size: 40px;"">slumb</p>
  <p style=""font-size: 16px;"">F = YES &nbsp;&nbsp;&nbsp; J = NO</p>
","j","html-keyboard-response","58","2.1.0","88717","F=YES, J=NO","xaqujhs69k","2","68","70","65","","","","","","lextale","false","false","","","","","","","",""
"600","
  <p style=""font-size: 40px;"">jungle</p>
  <p style=""font-size: 16px;"">F = YES &nbsp;&nbsp;&nbsp; J = NO</p>
","f","html-keyboard-response","59","2.1.0","89317","F=YES, J=NO","xaqujhs69k","2","68","70","65","","","","","","lextale","true","false","","","","","","","",""
"967","
  <p style=""font-size: 40px;"">frolick</p>
  <p style=""font-size: 16px;"">F = YES &nbsp;&nbsp;&nbsp; J = NO</p>
","j","html-keyboard-response","60","2.1.0","90285","F=YES, J=NO","xaqujhs69k","2","68","70","65","","","","","","lextale","false","false","","","","","","","",""
"1999","
      <h2>LexTALE Test Completed</h2>
      <p>Your LexTALE vocabulary score is: <strong>68%</strong></p>
      <p>Press any key to continue.</p>
    "," ","html-keyboard-response","61","2.1.0","92285","F=YES, J=NO","xaqujhs69k","2","68","70","65","","","","","","","","","","","","","","","",""
"21635","
    <div style=""max-width: 800px; margin: auto; text-align: left;"">
      <h2>Break Time</h2>
      <p>You have completed the first part of the study.</p>
      <p>You may take a short <strong>30-second break</strong> before continuing.</p>
      <p>When you’re ready, press any key to continue to the final task.</p>
    </div>
  "," ","html-keyboard-response","62","2.1.0","113921","F=YES, J=NO","xaqujhs69k","2","68","70","65","","","","","","","","","","","","","","","",""
"44493","
    <div style=""max-width: 800px; margin: auto; text-align: left;"">
      <h2>Part 2: Lexical Decision Task</h2>
      <p>You will now begin the second part of the study.</p>
      <p>Each trial will follow this sequence:</p>
      <ul>
        <li>A fixation cross (+) appears at the center of the screen.</li>
        <li>You will hear a short beep followed by a spoken word.</li>
        <li>A written word will appear briefly on the screen.</li>
      </ul>
      <p>Your task is to judge whether the <strong>written word</strong> is a real English word.</p>
      <p style=""margin-top: 1em;""><strong>Key responses:</strong></p>
      <ul>
        <li><strong>F</strong> = YES (real English word)</li>
        <li><strong>J</strong> = NO (not a real English word)</li>
      </ul>
      <p>Please respond as quickly and accurately as you can.</p>
      <p style=""margin-top: 2em;"">Press any key to continue.</p>
    </div>
  "," ","html-keyboard-response","63","2.1.0","158414","F=YES, J=NO","xaqujhs69k","2","68","70","65","","","","","","","","","","","","","","","",""
"4256","
    <div style=""max-width: 800px; margin: auto; text-align: left;"">
      <h2>Before You Begin</h2>
      <p>Make sure your sound is turned on.</p>
      <p>You will hear audio during each trial, but your decision should be based only on the <strong>written word</strong> you see on the screen.</p>
      <p><strong>Reminder:</strong></p>
      <ul>
        <li><strong>F</strong> = YES (real English word)</li>
        <li><strong>J</strong> = NO (not a real English word)</li>
      </ul>
      <p style=""margin-top: 2em;"">Press any key when you are ready to begin.</p>
    </div>
  "," ","html-keyboard-response","64","2.1.0","162671","F=YES, J=NO","xaqujhs69k","2","68","70","65","","","","","","","","","","","","","","","",""
"1368","
    <div style=""max-width: 800px; margin: auto; text-align: left;"">
      <h2>Part 2: Practice Trials</h2>
      <p>You will now complete a few <strong>practice trials</strong> to get familiar with the task.</p>
      <p>These trials are <strong>not scored</strong> and are only to help you get used to the format.</p>
      <p style=""margin-top: 2em;"">Press any key to begin.</p>
    </div>
  "," ","html-keyboard-response","65","2.1.0","164039","F=YES, J=NO","xaqujhs69k","2","68","70","65","","","","","","","","","","","","","","","",""
"1424","<p>Starting practice block 1 of 2. Press any key to continue.</p>"," ","html-keyboard-response","66","2.1.0","165464","F=YES, J=NO","xaqujhs69k","2","68","70","65","","","","","","","","","","","","","","","",""
"null","<p style=""font-size: 50px;"">+</p>","null","html-keyboard-response","67","2.1.0","165764","F=YES, J=NO","xaqujhs69k","2","68","70","65","","","","","","","","","","","","","","","",""
"null","audio/beep-329314.mp3","null","audio-keyboard-response","68","2.1.0","167333","F=YES, J=NO","xaqujhs69k","2","68","70","65","","","","","","","","","","","","","","","",""
"null","audio/desire.wav","null","audio-keyboard-response","69","2.1.0","168003","F=YES, J=NO","xaqujhs69k","2","68","70","65","","","","","","","","","","","","","","","",""
"972","
          <p id=""word"" style=""font-size: 40px;"">nophed</p>
          <p style=""font-size: 16px;"">F = YES &nbsp;&nbsp;&nbsp; J = NO</p>
        ","j","html-keyboard-response","70","2.1.0","168976","F=YES, J=NO","xaqujhs69k","2","68","70","65","","","","","","","","","nophed","desire","pseudoword","pseudoword","j","true","",""
"null","<p style=""font-size: 50px;"">+</p>","null","html-keyboard-response","71","2.1.0","169281","F=YES, J=NO","xaqujhs69k","2","68","70","65","","","","","","","","","","","","","","","",""
"null","audio/beep-329314.mp3","null","audio-keyboard-response","72","2.1.0","170813","F=YES, J=NO","xaqujhs69k","2","68","70","65","","","","","","","","","","","","","","","",""
"null","audio/belief.wav","null","audio-keyboard-response","73","2.1.0","171443","F=YES, J=NO","xaqujhs69k","2","68","70","65","","","","","","","","","","","","","","","",""
"741","
          <p id=""word"" style=""font-size: 40px;"">read</p>
          <p style=""font-size: 16px;"">F = YES &nbsp;&nbsp;&nbsp; J = NO</p>
        ","f","html-keyboard-response","74","2.1.0","172184","F=YES, J=NO","xaqujhs69k","2","68","70","65","","","","","","","","","read","belief","filler","filler","f","true","",""
"null","<p style=""font-size: 50px;"">+</p>","null","html-keyboard-response","75","2.1.0","172491","F=YES, J=NO","xaqujhs69k","2","68","70","65","","","","","","","","","","","","","","","",""
"null","audio/beep-329314.mp3","null","audio-keyboard-response","76","2.1.0","174013","F=YES, J=NO","xaqujhs69k","2","68","70","65","","","","","","","","","","","","","","","",""
"null","audio/window1.wav","null","audio-keyboard-response","77","2.1.0","174743","F=YES, J=NO","xaqujhs69k","2","68","70","65","","","","","","","","","","","","","","","",""
"801","
          <p id=""word"" style=""font-size: 40px;"">toss</p>
          <p style=""font-size: 16px;"">F = YES &nbsp;&nbsp;&nbsp; J = NO</p>
        ","f","html-keyboard-response","78","2.1.0","175545","F=YES, J=NO","xaqujhs69k","2","68","70","65","","","","","","","","","toss","window1","filler","filler","f","true","",""
"null","<p style=""font-size: 50px;"">+</p>","null","html-keyboard-response","79","2.1.0","175852","F=YES, J=NO","xaqujhs69k","2","68","70","65","","","","","","","","","","","","","","","",""
"null","audio/beep-329314.mp3","null","audio-keyboard-response","80","2.1.0","177373","F=YES, J=NO","xaqujhs69k","2","68","70","65","","","","","","","","","","","","","","","",""
"null","audio/pattern.wav","null","audio-keyboard-response","81","2.1.0","178023","F=YES, J=NO","xaqujhs69k","2","68","70","65","","","","","","","","","","","","","","","",""
"898","
          <p id=""word"" style=""font-size: 40px;"">tug</p>
          <p style=""font-size: 16px;"">F = YES &nbsp;&nbsp;&nbsp; J = NO</p>
        ","j","html-keyboard-response","82","2.1.0","178921","F=YES, J=NO","xaqujhs69k","2","68","70","65","","","","","","","","","tug","pattern","filler","filler","f","false","",""
"null","<p style=""font-size: 50px;"">+</p>","null","html-keyboard-response","83","2.1.0","179224","F=YES, J=NO","xaqujhs69k","2","68","70","65","","","","","","","","","","","","","","","",""
"null","audio/beep-329314.mp3","null","audio-keyboard-response","84","2.1.0","180753","F=YES, J=NO","xaqujhs69k","2","68","70","65","","","","","","","","","","","","","","","",""
"null","audio/bush1.wav","null","audio-keyboard-response","85","2.1.0","181363","F=YES, J=NO","xaqujhs69k","2","68","70","65","","","","","","","","","","","","","","","",""
"1030","
          <p id=""word"" style=""font-size: 40px;"">platined</p>
          <p style=""font-size: 16px;"">F = YES &nbsp;&nbsp;&nbsp; J = NO</p>
        ","j","html-keyboard-response","86","2.1.0","182394","F=YES, J=NO","xaqujhs69k","2","68","70","65","","","","","","","","","platined","bush1","pseudoword","pseudoword","j","true","",""
"null","<p style=""font-size: 50px;"">+</p>","null","html-keyboard-response","87","2.1.0","182708","F=YES, J=NO","xaqujhs69k","2","68","70","65","","","","","","","","","","","","","","","",""
"null","audio/beep-329314.mp3","null","audio-keyboard-response","88","2.1.0","184233","F=YES, J=NO","xaqujhs69k","2","68","70","65","","","","","","","","","","","","","","","",""
"null","audio/prisoner.wav","null","audio-keyboard-response","89","2.1.0","184863","F=YES, J=NO","xaqujhs69k","2","68","70","65","","","","","","","","","","","","","","","",""
"930","
          <p id=""word"" style=""font-size: 40px;"">egotian</p>
          <p style=""font-size: 16px;"">F = YES &nbsp;&nbsp;&nbsp; J = NO</p>
        ","j","html-keyboard-response","90","2.1.0","185794","F=YES, J=NO","xaqujhs69k","2","68","70","65","","","","","","","","","egotian","prisoner","pseudoword","pseudoword","j","true","",""
"null","<p style=""font-size: 50px;"">+</p>","null","html-keyboard-response","91","2.1.0","186102","F=YES, J=NO","xaqujhs69k","2","68","70","65","","","","","","","","","","","","","","","",""
"null","audio/beep-329314.mp3","null","audio-keyboard-response","92","2.1.0","187633","F=YES, J=NO","xaqujhs69k","2","68","70","65","","","","","","","","","","","","","","","",""
"null","audio/dollar.wav","null","audio-keyboard-response","93","2.1.0","188163","F=YES, J=NO","xaqujhs69k","2","68","70","65","","","","","","","","","","","","","","","",""
"935","
          <p id=""word"" style=""font-size: 40px;"">gliptism</p>
          <p style=""font-size: 16px;"">F = YES &nbsp;&nbsp;&nbsp; J = NO</p>
        ","j","html-keyboard-response","94","2.1.0","189099","F=YES, J=NO","xaqujhs69k","2","68","70","65","","","","","","","","","gliptism","dollar","pseudoword","pseudoword","j","true","",""
"null","<p style=""font-size: 50px;"">+</p>","null","html-keyboard-response","95","2.1.0","189410","F=YES, J=NO","xaqujhs69k","2","68","70","65","","","","","","","","","","","","","","","",""
"null","audio/beep-329314.mp3","null","audio-keyboard-response","96","2.1.0","190933","F=YES, J=NO","xaqujhs69k","2","68","70","65","","","","","","","","","","","","","","","",""
"null","audio/cinema1.wav","null","audio-keyboard-response","97","2.1.0","191563","F=YES, J=NO","xaqujhs69k","2","68","70","65","","","","","","","","","","","","","","","",""
"920","
          <p id=""word"" style=""font-size: 40px;"">murple</p>
          <p style=""font-size: 16px;"">F = YES &nbsp;&nbsp;&nbsp; J = NO</p>
        ","f","html-keyboard-response","98","2.1.0","192483","F=YES, J=NO","xaqujhs69k","2","68","70","65","","","","","","","","","murple","cinema1","pseudoword","pseudoword","j","false","",""
"null","<p style=""font-size: 50px;"">+</p>","null","html-keyboard-response","99","2.1.0","192799","F=YES, J=NO","xaqujhs69k","2","68","70","65","","","","","","","","","","","","","","","",""
"null","audio/beep-329314.mp3","null","audio-keyboard-response","100","2.1.0","194333","F=YES, J=NO","xaqujhs69k","2","68","70","65","","","","","","","","","","","","","","","",""
"null","audio/baby.wav","null","audio-keyboard-response","101","2.1.0","194823","F=YES, J=NO","xaqujhs69k","2","68","70","65","","","","","","","","","","","","","","","",""
"748","
          <p id=""word"" style=""font-size: 40px;"">lift</p>
          <p style=""font-size: 16px;"">F = YES &nbsp;&nbsp;&nbsp; J = NO</p>
        ","f","html-keyboard-response","102","2.1.0","195572","F=YES, J=NO","xaqujhs69k","2","68","70","65","","","","","","","","","lift","baby","filler","filler","f","true","",""
"null","<p style=""font-size: 50px;"">+</p>","null","html-keyboard-response","103","2.1.0","195878","F=YES, J=NO","xaqujhs69k","2","68","70","65","","","","","","","","","","","","","","","",""
"null","audio/beep-329314.mp3","null","audio-keyboard-response","104","2.1.0","197413","F=YES, J=NO","xaqujhs69k","2","68","70","65","","","","","","","","","","","","","","","",""
"null","audio/uncle1.wav","null","audio-keyboard-response","105","2.1.0","197923","F=YES, J=NO","xaqujhs69k","2","68","70","65","","","","","","","","","","","","","","","",""
"881","
          <p id=""word"" style=""font-size: 40px;"">dramble</p>
          <p style=""font-size: 16px;"">F = YES &nbsp;&nbsp;&nbsp; J = NO</p>
        ","j","html-keyboard-response","106","2.1.0","198804","F=YES, J=NO","xaqujhs69k","2","68","70","65","","","","","","","","","dramble","uncle1","pseudoword","pseudoword","j","true","",""
"null","<p style=""font-size: 50px;"">+</p>","null","html-keyboard-response","107","2.1.0","199106","F=YES, J=NO","xaqujhs69k","2","68","70","65","","","","","","","","","","","","","","","",""
"null","audio/beep-329314.mp3","null","audio-keyboard-response","108","2.1.0","200633","F=YES, J=NO","xaqujhs69k","2","68","70","65","","","","","","","","","","","","","","","",""
"null","audio/purpose.wav","null","audio-keyboard-response","109","2.1.0","201423","F=YES, J=NO","xaqujhs69k","2","68","70","65","","","","","","","","","","","","","","","",""
"853","
          <p id=""word"" style=""font-size: 40px;"">whigm</p>
          <p style=""font-size: 16px;"">F = YES &nbsp;&nbsp;&nbsp; J = NO</p>
        ","j","html-keyboard-response","110","2.1.0","202276","F=YES, J=NO","xaqujhs69k","2","68","70","65","","","","","","","","","whigm","purpose","pseudoword","pseudoword","j","true","",""
"null","<p style=""font-size: 50px;"">+</p>","null","html-keyboard-response","111","2.1.0","202586","F=YES, J=NO","xaqujhs69k","2","68","70","65","","","","","","","","","","","","","","","",""
"null","audio/beep-329314.mp3","null","audio-keyboard-response","112","2.1.0","204113","F=YES, J=NO","xaqujhs69k","2","68","70","65","","","","","","","","","","","","","","","",""
"null","audio/trust.wav","null","audio-keyboard-response","113","2.1.0","204883","F=YES, J=NO","xaqujhs69k","2","68","70","65","","","","","","","","","","","","","","","",""
"841","
          <p id=""word"" style=""font-size: 40px;"">swint</p>
          <p style=""font-size: 16px;"">F = YES &nbsp;&nbsp;&nbsp; J = NO</p>
        ","f","html-keyboard-response","114","2.1.0","205725","F=YES, J=NO","xaqujhs69k","2","68","70","65","","","","","","","","","swint","trust","pseudoword","pseudoword","j","false","",""
"1840","<p>Starting practice block 2 of 2. Press any key to continue.</p>"," ","html-keyboard-response","115","2.1.0","207565","F=YES, J=NO","xaqujhs69k","2","68","70","65","","","","","","","","","","","","","","","",""
"null","<p style=""font-size: 50px;"">+</p>","null","html-keyboard-response","116","2.1.0","207880","F=YES, J=NO","xaqujhs69k","2","68","70","65","","","","","","","","","","","","","","","",""
"null","audio/beep-329314.mp3","null","audio-keyboard-response","117","2.1.0","209413","F=YES, J=NO","xaqujhs69k","2","68","70","65","","","","","","","","","","","","","","","",""
"null","audio/van1.wav","null","audio-keyboard-response","118","2.1.0","210023","F=YES, J=NO","xaqujhs69k","2","68","70","65","","","","","","","","","","","","","","","",""
"582","
          <p id=""word"" style=""font-size: 40px;"">push</p>
          <p style=""font-size: 16px;"">F = YES &nbsp;&nbsp;&nbsp; J = NO</p>
        ","f","html-keyboard-response","119","2.1.0","210606","F=YES, J=NO","xaqujhs69k","2","68","70","65","","","","","","","","","push","van1","filler","filler","f","true","",""
"null","<p style=""font-size: 50px;"">+</p>","null","html-keyboard-response","120","2.1.0","210914","F=YES, J=NO","xaqujhs69k","2","68","70","65","","","","","","","","","","","","","","","",""
"null","audio/beep-329314.mp3","null","audio-keyboard-response","121","2.1.0","212453","F=YES, J=NO","xaqujhs69k","2","68","70","65","","","","","","","","","","","","","","","",""
"null","audio/trout1.wav","null","audio-keyboard-response","122","2.1.0","213163","F=YES, J=NO","xaqujhs69k","2","68","70","65","","","","","","","","","","","","","","","",""
"667","
          <p id=""word"" style=""font-size: 40px;"">spimt</p>
          <p style=""font-size: 16px;"">F = YES &nbsp;&nbsp;&nbsp; J = NO</p>
        ","j","html-keyboard-response","123","2.1.0","213830","F=YES, J=NO","xaqujhs69k","2","68","70","65","","","","","","","","","spimt","trout1","pseudoword","pseudoword","j","true","",""
"null","<p style=""font-size: 50px;"">+</p>","null","html-keyboard-response","124","2.1.0","214139","F=YES, J=NO","xaqujhs69k","2","68","70","65","","","","","","","","","","","","","","","",""
"null","audio/beep-329314.mp3","null","audio-keyboard-response","125","2.1.0","215673","F=YES, J=NO","xaqujhs69k","2","68","70","65","","","","","","","","","","","","","","","",""
"null","audio/cave1.wav","null","audio-keyboard-response","126","2.1.0","216343","F=YES, J=NO","xaqujhs69k","2","68","70","65","","","","","","","","","","","","","","","",""
"911","
          <p id=""word"" style=""font-size: 40px;"">blacket</p>
          <p style=""font-size: 16px;"">F = YES &nbsp;&nbsp;&nbsp; J = NO</p>
        ","f","html-keyboard-response","127","2.1.0","217255","F=YES, J=NO","xaqujhs69k","2","68","70","65","","","","","","","","","blacket","cave1","pseudoword","pseudoword","j","false","",""
"null","<p style=""font-size: 50px;"">+</p>","null","html-keyboard-response","128","2.1.0","217566","F=YES, J=NO","xaqujhs69k","2","68","70","65","","","","","","","","","","","","","","","",""
"null","audio/beep-329314.mp3","null","audio-keyboard-response","129","2.1.0","219093","F=YES, J=NO","xaqujhs69k","2","68","70","65","","","","","","","","","","","","","","","",""
"null","audio/menu.wav","null","audio-keyboard-response","130","2.1.0","219683","F=YES, J=NO","xaqujhs69k","2","68","70","65","","","","","","","","","","","","","","","",""
"684","
          <p id=""word"" style=""font-size: 40px;"">slice</p>
          <p style=""font-size: 16px;"">F = YES &nbsp;&nbsp;&nbsp; J = NO</p>
        ","f","html-keyboard-response","131","2.1.0","220367","F=YES, J=NO","xaqujhs69k","2","68","70","65","","","","","","","","","slice","menu","filler","filler","f","true","",""
"null","<p style=""font-size: 50px;"">+</p>","null","html-keyboard-response","132","2.1.0","220675","F=YES, J=NO","xaqujhs69k","2","68","70","65","","","","","","","","","","","","","","","",""
"null","audio/beep-329314.mp3","null","audio-keyboard-response","133","2.1.0","222213","F=YES, J=NO","xaqujhs69k","2","68","70","65","","","","","","","","","","","","","","","",""
"null","audio/ankle1.wav","null","audio-keyboard-response","134","2.1.0","222763","F=YES, J=NO","xaqujhs69k","2","68","70","65","","","","","","","","","","","","","","","",""
"636","
          <p id=""word"" style=""font-size: 40px;"">kick</p>
          <p style=""font-size: 16px;"">F = YES &nbsp;&nbsp;&nbsp; J = NO</p>
        ","f","html-keyboard-response","135","2.1.0","223399","F=YES, J=NO","xaqujhs69k","2","68","70","65","","","","","","","","","kick","ankle1","filler","filler","f","true","",""
"null","<p style=""font-size: 50px;"">+</p>","null","html-keyboard-response","136","2.1.0","223703","F=YES, J=NO","xaqujhs69k","2","68","70","65","","","","","","","","","","","","","","","",""
"null","audio/beep-329314.mp3","null","audio-keyboard-response","137","2.1.0","225233","F=YES, J=NO","xaqujhs69k","2","68","70","65","","","","","","","","","","","","","","","",""
"null","audio/tax1.wav","null","audio-keyboard-response","138","2.1.0","225883","F=YES, J=NO","xaqujhs69k","2","68","70","65","","","","","","","","","","","","","","","",""
"693","
          <p id=""word"" style=""font-size: 40px;"">snate</p>
          <p style=""font-size: 16px;"">F = YES &nbsp;&nbsp;&nbsp; J = NO</p>
        ","j","html-keyboard-response","139","2.1.0","226576","F=YES, J=NO","xaqujhs69k","2","68","70","65","","","","","","","","","snate","tax1","pseudoword","pseudoword","j","true","",""
"null","<p style=""font-size: 50px;"">+</p>","null","html-keyboard-response","140","2.1.0","226892","F=YES, J=NO","xaqujhs69k","2","68","70","65","","","","","","","","","","","","","","","",""
"null","audio/beep-329314.mp3","null","audio-keyboard-response","141","2.1.0","228413","F=YES, J=NO","xaqujhs69k","2","68","70","65","","","","","","","","","","","","","","","",""
"null","audio/age1.wav","null","audio-keyboard-response","142","2.1.0","228964","F=YES, J=NO","xaqujhs69k","2","68","70","65","","","","","","","","","","","","","","","",""
"948","
          <p id=""word"" style=""font-size: 40px;"">bake</p>
          <p style=""font-size: 16px;"">F = YES &nbsp;&nbsp;&nbsp; J = NO</p>
        ","f","html-keyboard-response","143","2.1.0","229912","F=YES, J=NO","xaqujhs69k","2","68","70","65","","","","","","","","","bake","age1","filler","filler","f","true","",""
"null","<p style=""font-size: 50px;"">+</p>","null","html-keyboard-response","144","2.1.0","230225","F=YES, J=NO","xaqujhs69k","2","68","70","65","","","","","","","","","","","","","","","",""
"null","audio/beep-329314.mp3","null","audio-keyboard-response","145","2.1.0","231753","F=YES, J=NO","xaqujhs69k","2","68","70","65","","","","","","","","","","","","","","","",""
"null","audio/cancer1.wav","null","audio-keyboard-response","146","2.1.0","232323","F=YES, J=NO","xaqujhs69k","2","68","70","65","","","","","","","","","","","","","","","",""
"677","
          <p id=""word"" style=""font-size: 40px;"">draw</p>
          <p style=""font-size: 16px;"">F = YES &nbsp;&nbsp;&nbsp; J = NO</p>
        ","f","html-keyboard-response","147","2.1.0","233001","F=YES, J=NO","xaqujhs69k","2","68","70","65","","","","","","","","","draw","cancer1","filler","filler","f","true","",""
"null","<p style=""font-size: 50px;"">+</p>","null","html-keyboard-response","148","2.1.0","233302","F=YES, J=NO","xaqujhs69k","2","68","70","65","","","","","","","","","","","","","","","",""
"null","audio/beep-329314.mp3","null","audio-keyboard-response","149","2.1.0","234833","F=YES, J=NO","xaqujhs69k","2","68","70","65","","","","","","","","","","","","","","","",""
"null","audio/gossip1.wav","null","audio-keyboard-response","150","2.1.0","235483","F=YES, J=NO","xaqujhs69k","2","68","70","65","","","","","","","","","","","","","","","",""
"854","
          <p id=""word"" style=""font-size: 40px;"">camerish</p>
          <p style=""font-size: 16px;"">F = YES &nbsp;&nbsp;&nbsp; J = NO</p>
        ","j","html-keyboard-response","151","2.1.0","236338","F=YES, J=NO","xaqujhs69k","2","68","70","65","","","","","","","","","camerish","gossip1","pseudoword","pseudoword","j","true","",""
"null","<p style=""font-size: 50px;"">+</p>","null","html-keyboard-response","152","2.1.0","236652","F=YES, J=NO","xaqujhs69k","2","68","70","65","","","","","","","","","","","","","","","",""
"null","audio/beep-329314.mp3","null","audio-keyboard-response","153","2.1.0","238173","F=YES, J=NO","xaqujhs69k","2","68","70","65","","","","","","","","","","","","","","","",""
"null","audio/bridge.wav","null","audio-keyboard-response","154","2.1.0","238743","F=YES, J=NO","xaqujhs69k","2","68","70","65","","","","","","","","","","","","","","","",""
"698","
          <p id=""word"" style=""font-size: 40px;"">crack</p>
          <p style=""font-size: 16px;"">F = YES &nbsp;&nbsp;&nbsp; J = NO</p>
        ","f","html-keyboard-response","155","2.1.0","239442","F=YES, J=NO","xaqujhs69k","2","68","70","65","","","","","","","","","crack","bridge","filler","filler","f","true","",""
"null","<p style=""font-size: 50px;"">+</p>","null","html-keyboard-response","156","2.1.0","239752","F=YES, J=NO","xaqujhs69k","2","68","70","65","","","","","","","","","","","","","","","",""
"null","audio/beep-329314.mp3","null","audio-keyboard-response","157","2.1.0","241273","F=YES, J=NO","xaqujhs69k","2","68","70","65","","","","","","","","","","","","","","","",""
"null","audio/bishop1.wav","null","audio-keyboard-response","158","2.1.0","241883","F=YES, J=NO","xaqujhs69k","2","68","70","65","","","","","","","","","","","","","","","",""
"791","
          <p id=""word"" style=""font-size: 40px;"">play</p>
          <p style=""font-size: 16px;"">F = YES &nbsp;&nbsp;&nbsp; J = NO</p>
        ","f","html-keyboard-response","159","2.1.0","242674","F=YES, J=NO","xaqujhs69k","2","68","70","65","","","","","","","","","play","bishop1","filler","filler","f","true","",""
"null","<p style=""font-size: 50px;"">+</p>","null","html-keyboard-response","160","2.1.0","242977","F=YES, J=NO","xaqujhs69k","2","68","70","65","","","","","","","","","","","","","","","",""
"null","audio/beep-329314.mp3","null","audio-keyboard-response","161","2.1.0","244513","F=YES, J=NO","xaqujhs69k","2","68","70","65","","","","","","","","","","","","","","","",""
"null","audio/battle1.wav","null","audio-keyboard-response","162","2.1.0","245003","F=YES, J=NO","xaqujhs69k","2","68","70","65","","","","","","","","","","","","","","","",""
"503","
          <p id=""word"" style=""font-size: 40px;"">boil</p>
          <p style=""font-size: 16px;"">F = YES &nbsp;&nbsp;&nbsp; J = NO</p>
        ","f","html-keyboard-response","163","2.1.0","245507","F=YES, J=NO","xaqujhs69k","2","68","70","65","","","","","","","","","boil","battle1","filler","filler","f","true","",""
"22219","
    <div style=""max-width: 800px; margin: auto; text-align: left;"">
      <h2>Part 2: Main Trials</h2>
      <p>Great job on the practice trials!</p>
      <p>You will now begin the <strong>main set of trials</strong>.</p>
      <p>Remember your key assignments:</p>
      <ul>
        <li><strong>F</strong> = YES (real English word)</li>
        <li><strong>J</strong> = NO (not a real English word)</li>
      </ul>
      <p>Try to respond as <strong>quickly and accurately</strong> as possible.</p>
      <p style=""margin-top: 2em;"">Press any key to begin the main trials.</p>
    </div>
  "," ","html-keyboard-response","164","2.1.0","267726","F=YES, J=NO","xaqujhs69k","2","68","70","65","","","","","","","","","","","","","","","",""
"1495","<p>Starting main block 1 of 8. Press any key to continue.</p>"," ","html-keyboard-response","165","2.1.0","269222","F=YES, J=NO","xaqujhs69k","2","68","70","65","","","","","","","","","","","","","","","",""
"null","<p style=""font-size: 50px;"">+</p>","null","html-keyboard-response","166","2.1.0","269528","F=YES, J=NO","xaqujhs69k","2","68","70","65","","","","","","","","","","","","","","","",""
"null","audio/beep-329314.mp3","null","audio-keyboard-response","167","2.1.0","271067","F=YES, J=NO","xaqujhs69k","2","68","70","65","","","","","","","","","","","","","","","",""
"null","audio/bomb1.wav","null","audio-keyboard-response","168","2.1.0","271447","F=YES, J=NO","xaqujhs69k","2","68","70","65","","","","","","","","","","","","","","","",""
"559","
          <p id=""word"" style=""font-size: 40px;"">clean</p>
          <p style=""font-size: 16px;"">F = YES &nbsp;&nbsp;&nbsp; J = NO</p>
        ","f","html-keyboard-response","169","2.1.0","272006","F=YES, J=NO","xaqujhs69k","2","68","70","65","","","","","","","","","clean","bomb1","filler","filler","f","true","",""
"null","<p style=""font-size: 50px;"">+</p>","null","html-keyboard-response","170","2.1.0","272314","F=YES, J=NO","xaqujhs69k","2","68","70","65","","","","","","","","","","","","","","","",""
"null","audio/beep-329314.mp3","null","audio-keyboard-response","171","2.1.0","273847","F=YES, J=NO","xaqujhs69k","2","68","70","65","","","","","","","","","","","","","","","",""
"null","audio/key1.wav","null","audio-keyboard-response","172","2.1.0","274207","F=YES, J=NO","xaqujhs69k","2","68","70","65","","","","","","","","","","","","","","","",""
"695","
          <p id=""word"" style=""font-size: 40px;"">sminsh</p>
          <p style=""font-size: 16px;"">F = YES &nbsp;&nbsp;&nbsp; J = NO</p>
        ","j","html-keyboard-response","173","2.1.0","274903","F=YES, J=NO","xaqujhs69k","2","68","70","65","","","","","","","","","sminsh","key1","pseudoword","pseudoword","j","true","",""
"null","<p style=""font-size: 50px;"">+</p>","null","html-keyboard-response","174","2.1.0","275205","F=YES, J=NO","xaqujhs69k","2","68","70","65","","","","","","","","","","","","","","","",""
"null","audio/beep-329314.mp3","null","audio-keyboard-response","175","2.1.0","276727","F=YES, J=NO","xaqujhs69k","2","68","70","65","","","","","","","","","","","","","","","",""
"null","audio/relief.wav","null","audio-keyboard-response","176","2.1.0","277407","F=YES, J=NO","xaqujhs69k","2","68","70","65","","","","","","","","","","","","","","","",""
"696","
          <p id=""word"" style=""font-size: 40px;"">grigg</p>
          <p style=""font-size: 16px;"">F = YES &nbsp;&nbsp;&nbsp; J = NO</p>
        ","j","html-keyboard-response","177","2.1.0","278103","F=YES, J=NO","xaqujhs69k","2","68","70","65","","","","","","","","","grigg","relief","pseudoword","pseudoword","j","true","",""
"null","<p style=""font-size: 50px;"">+</p>","null","html-keyboard-response","178","2.1.0","278419","F=YES, J=NO","xaqujhs69k","2","68","70","65","","","","","","","","","","","","","","","",""
"null","audio/beep-329314.mp3","null","audio-keyboard-response","179","2.1.0","279947","F=YES, J=NO","xaqujhs69k","2","68","70","65","","","","","","","","","","","","","","","",""
"null","audio/vehicle1.wav","null","audio-keyboard-response","180","2.1.0","280587","F=YES, J=NO","xaqujhs69k","2","68","70","65","","","","","","","","","","","","","","","",""
"860","
          <p id=""word"" style=""font-size: 40px;"">dropt</p>
          <p style=""font-size: 16px;"">F = YES &nbsp;&nbsp;&nbsp; J = NO</p>
        ","j","html-keyboard-response","181","2.1.0","281448","F=YES, J=NO","xaqujhs69k","2","68","70","65","","","","","","","","","dropt","vehicle1","pseudoword","pseudoword","j","true","",""
"null","<p style=""font-size: 50px;"">+</p>","null","html-keyboard-response","182","2.1.0","281760","F=YES, J=NO","xaqujhs69k","2","68","70","65","","","","","","","","","","","","","","","",""
"null","audio/beep-329314.mp3","null","audio-keyboard-response","183","2.1.0","283287","F=YES, J=NO","xaqujhs69k","2","68","70","65","","","","","","","","","","","","","","","",""
"null","audio/breath.wav","null","audio-keyboard-response","184","2.1.0","283887","F=YES, J=NO","xaqujhs69k","2","68","70","65","","","","","","","","","","","","","","","",""
"833","
          <p id=""word"" style=""font-size: 40px;"">twets</p>
          <p style=""font-size: 16px;"">F = YES &nbsp;&nbsp;&nbsp; J = NO</p>
        ","j","html-keyboard-response","185","2.1.0","284720","F=YES, J=NO","xaqujhs69k","2","68","70","65","","","","","","","","","twets","breath","pseudoword","pseudoword","j","true","",""
"null","<p style=""font-size: 50px;"">+</p>","null","html-keyboard-response","186","2.1.0","285028","F=YES, J=NO","xaqujhs69k","2","68","70","65","","","","","","","","","","","","","","","",""
"null","audio/beep-329314.mp3","null","audio-keyboard-response","187","2.1.0","286567","F=YES, J=NO","xaqujhs69k","2","68","70","65","","","","","","","","","","","","","","","",""
"null","audio/empire.wav","null","audio-keyboard-response","188","2.1.0","287227","F=YES, J=NO","xaqujhs69k","2","68","70","65","","","","","","","","","","","","","","","",""
"541","
          <p id=""word"" style=""font-size: 40px;"">bring</p>
          <p style=""font-size: 16px;"">F = YES &nbsp;&nbsp;&nbsp; J = NO</p>
        ","f","html-keyboard-response","189","2.1.0","287768","F=YES, J=NO","xaqujhs69k","2","68","70","65","","","","","","","","","bring","empire","unrelated","experimental","f","true","",""
"null","<p style=""font-size: 50px;"">+</p>","null","html-keyboard-response","190","2.1.0","288082","F=YES, J=NO","xaqujhs69k","2","68","70","65","","","","","","","","","","","","","","","",""
"null","audio/beep-329314.mp3","null","audio-keyboard-response","191","2.1.0","289607","F=YES, J=NO","xaqujhs69k","2","68","70","65","","","","","","","","","","","","","","","",""
"null","audio/strength.wav","null","audio-keyboard-response","192","2.1.0","290367","F=YES, J=NO","xaqujhs69k","2","68","70","65","","","","","","","","","","","","","","","",""
"802","
          <p id=""word"" style=""font-size: 40px;"">possess</p>
          <p style=""font-size: 16px;"">F = YES &nbsp;&nbsp;&nbsp; J = NO</p>
        ","f","html-keyboard-response","193","2.1.0","291169","F=YES, J=NO","xaqujhs69k","2","68","70","65","","","","","","","","","possess","strength","metaphor","experimental","f","true","",""
"null","<p style=""font-size: 50px;"">+</p>","null","html-keyboard-response","194","2.1.0","291480","F=YES, J=NO","xaqujhs69k","2","68","70","65","","","","","","","","","","","","","","","",""
"null","audio/beep-329314.mp3","null","audio-keyboard-response","195","2.1.0","293007","F=YES, J=NO","xaqujhs69k","2","68","70","65","","","","","","","","","","","","","","","",""
"null","audio/sugar1.wav","null","audio-keyboard-response","196","2.1.0","293527","F=YES, J=NO","xaqujhs69k","2","68","70","65","","","","","","","","","","","","","","","",""
"674","
          <p id=""word"" style=""font-size: 40px;"">glung</p>
          <p style=""font-size: 16px;"">F = YES &nbsp;&nbsp;&nbsp; J = NO</p>
        ","j","html-keyboard-response","197","2.1.0","294202","F=YES, J=NO","xaqujhs69k","2","68","70","65","","","","","","","","","glung","sugar1","pseudoword","pseudoword","j","true","",""
"null","<p style=""font-size: 50px;"">+</p>","null","html-keyboard-response","198","2.1.0","294513","F=YES, J=NO","xaqujhs69k","2","68","70","65","","","","","","","","","","","","","","","",""
"null","audio/beep-329314.mp3","null","audio-keyboard-response","199","2.1.0","296047","F=YES, J=NO","xaqujhs69k","2","68","70","65","","","","","","","","","","","","","","","",""
"null","audio/plane1.wav","null","audio-keyboard-response","200","2.1.0","296487","F=YES, J=NO","xaqujhs69k","2","68","70","65","","","","","","","","","","","","","","","",""
"506","
          <p id=""word"" style=""font-size: 40px;"">land</p>
          <p style=""font-size: 16px;"">F = YES &nbsp;&nbsp;&nbsp; J = NO</p>
        ","f","html-keyboard-response","201","2.1.0","296994","F=YES, J=NO","xaqujhs69k","2","68","70","65","","","","","","","","","land","plane1","literal","experimental","f","true","",""
"null","<p style=""font-size: 50px;"">+</p>","null","html-keyboard-response","202","2.1.0","297305","F=YES, J=NO","xaqujhs69k","2","68","70","65","","","","","","","","","","","","","","","",""
"null","audio/beep-329314.mp3","null","audio-keyboard-response","203","2.1.0","298827","F=YES, J=NO","xaqujhs69k","2","68","70","65","","","","","","","","","","","","","","","",""
"null","audio/life1.wav","null","audio-keyboard-response","204","2.1.0","299527","F=YES, J=NO","xaqujhs69k","2","68","70","65","","","","","","","","","","","","","","","",""
"723","
          <p id=""word"" style=""font-size: 40px;"">flimch</p>
          <p style=""font-size: 16px;"">F = YES &nbsp;&nbsp;&nbsp; J = NO</p>
        ","j","html-keyboard-response","205","2.1.0","300250","F=YES, J=NO","xaqujhs69k","2","68","70","65","","","","","","","","","flimch","life1","pseudoword","pseudoword","j","true","",""
"null","<p style=""font-size: 50px;"">+</p>","null","html-keyboard-response","206","2.1.0","300553","F=YES, J=NO","xaqujhs69k","2","68","70","65","","","","","","","","","","","","","","","",""
"null","audio/beep-329314.mp3","null","audio-keyboard-response","207","2.1.0","302087","F=YES, J=NO","xaqujhs69k","2","68","70","65","","","","","","","","","","","","","","","",""
"null","audio/test1.wav","null","audio-keyboard-response","208","2.1.0","302687","F=YES, J=NO","xaqujhs69k","2","68","70","65","","","","","","","","","","","","","","","",""
"764","
          <p id=""word"" style=""font-size: 40px;"">twopch</p>
          <p style=""font-size: 16px;"">F = YES &nbsp;&nbsp;&nbsp; J = NO</p>
        ","j","html-keyboard-response","209","2.1.0","303451","F=YES, J=NO","xaqujhs69k","2","68","70","65","","","","","","","","","twopch","test1","pseudoword","pseudoword","j","true","",""
"null","<p style=""font-size: 50px;"">+</p>","null","html-keyboard-response","210","2.1.0","303752","F=YES, J=NO","xaqujhs69k","2","68","70","65","","","","","","","","","","","","","","","",""
"null","audio/beep-329314.mp3","null","audio-keyboard-response","211","2.1.0","305287","F=YES, J=NO","xaqujhs69k","2","68","70","65","","","","","","","","","","","","","","","",""
"null","audio/milk.wav","null","audio-keyboard-response","212","2.1.0","305847","F=YES, J=NO","xaqujhs69k","2","68","70","65","","","","","","","","","","","","","","","",""
"796","
          <p id=""word"" style=""font-size: 40px;"">digest</p>
          <p style=""font-size: 16px;"">F = YES &nbsp;&nbsp;&nbsp; J = NO</p>
        ","j","html-keyboard-response","213","2.1.0","306643","F=YES, J=NO","xaqujhs69k","2","68","70","65","","","","","","","","","digest","milk","literal","experimental","f","false","",""
"null","<p style=""font-size: 50px;"">+</p>","null","html-keyboard-response","214","2.1.0","306945","F=YES, J=NO","xaqujhs69k","2","68","70","65","","","","","","","","","","","","","","","",""
"null","audio/beep-329314.mp3","null","audio-keyboard-response","215","2.1.0","308467","F=YES, J=NO","xaqujhs69k","2","68","70","65","","","","","","","","","","","","","","","",""
"null","audio/ego.wav","null","audio-keyboard-response","216","2.1.0","309007","F=YES, J=NO","xaqujhs69k","2","68","70","65","","","","","","","","","","","","","","","",""
"740","
          <p id=""word"" style=""font-size: 40px;"">bruite</p>
          <p style=""font-size: 16px;"">F = YES &nbsp;&nbsp;&nbsp; J = NO</p>
        ","j","html-keyboard-response","217","2.1.0","309748","F=YES, J=NO","xaqujhs69k","2","68","70","65","","","","","","","","","bruite","ego","pseudoword","pseudoword","j","true","",""
"null","<p style=""font-size: 50px;"">+</p>","null","html-keyboard-response","218","2.1.0","310049","F=YES, J=NO","xaqujhs69k","2","68","70","65","","","","","","","","","","","","","","","",""
"null","audio/beep-329314.mp3","null","audio-keyboard-response","219","2.1.0","311587","F=YES, J=NO","xaqujhs69k","2","68","70","65","","","","","","","","","","","","","","","",""
"null","audio/winter.wav","null","audio-keyboard-response","220","2.1.0","312187","F=YES, J=NO","xaqujhs69k","2","68","70","65","","","","","","","","","","","","","","","",""
"1216","
          <p id=""word"" style=""font-size: 40px;"">straven</p>
          <p style=""font-size: 16px;"">F = YES &nbsp;&nbsp;&nbsp; J = NO</p>
        ","f","html-keyboard-response","221","2.1.0","313404","F=YES, J=NO","xaqujhs69k","2","68","70","65","","","","","","","","","straven","winter","pseudoword","pseudoword","j","false","",""
"null","<p style=""font-size: 50px;"">+</p>","null","html-keyboard-response","222","2.1.0","313716","F=YES, J=NO","xaqujhs69k","2","68","70","65","","","","","","","","","","","","","","","",""
"null","audio/beep-329314.mp3","null","audio-keyboard-response","223","2.1.0","315247","F=YES, J=NO","xaqujhs69k","2","68","70","65","","","","","","","","","","","","","","","",""
"null","audio/camp.wav","null","audio-keyboard-response","224","2.1.0","315927","F=YES, J=NO","xaqujhs69k","2","68","70","65","","","","","","","","","","","","","","","",""
"693","
          <p id=""word"" style=""font-size: 40px;"">touch</p>
          <p style=""font-size: 16px;"">F = YES &nbsp;&nbsp;&nbsp; J = NO</p>
        ","f","html-keyboard-response","225","2.1.0","316621","F=YES, J=NO","xaqujhs69k","2","68","70","65","","","","","","","","","touch","camp","unrelated","experimental","f","true","",""
"null","<p style=""font-size: 50px;"">+</p>","null","html-keyboard-response","226","2.1.0","316922","F=YES, J=NO","xaqujhs69k","2","68","70","65","","","","","","","","","","","","","","","",""
"null","audio/beep-329314.mp3","null","audio-keyboard-response","227","2.1.0","318447","F=YES, J=NO","xaqujhs69k","2","68","70","65","","","","","","","","","","","","","","","",""
"null","audio/handle.wav","null","audio-keyboard-response","228","2.1.0","319107","F=YES, J=NO","xaqujhs69k","2","68","70","65","","","","","","","","","","","","","","","",""
"746","
          <p id=""word"" style=""font-size: 40px;"">moutes</p>
          <p style=""font-size: 16px;"">F = YES &nbsp;&nbsp;&nbsp; J = NO</p>
        ","j","html-keyboard-response","229","2.1.0","319853","F=YES, J=NO","xaqujhs69k","2","68","70","65","","","","","","","","","moutes","handle","pseudoword","pseudoword","j","true","",""
"22587","<p>Excellent! You have finished block 1 of 8.</p>
                     <p>Feel free to take a 30 second break.</p>
                     <p>Press any key when you're ready to continue.</p>"," ","html-keyboard-response","230","2.1.0","342441","F=YES, J=NO","xaqujhs69k","2","68","70","65","","","","","","","","","","","","","","","",""
"711","<p>Starting main block 2 of 8. Press any key to continue.</p>"," ","html-keyboard-response","231","2.1.0","343152","F=YES, J=NO","xaqujhs69k","2","68","70","65","","","","","","","","","","","","","","","",""
"null","<p style=""font-size: 50px;"">+</p>","null","html-keyboard-response","232","2.1.0","343465","F=YES, J=NO","xaqujhs69k","2","68","70","65","","","","","","","","","","","","","","","",""
"null","audio/beep-329314.mp3","null","audio-keyboard-response","233","2.1.0","345004","F=YES, J=NO","xaqujhs69k","2","68","70","65","","","","","","","","","","","","","","","",""
"null","audio/radio1.wav","null","audio-keyboard-response","234","2.1.0","345614","F=YES, J=NO","xaqujhs69k","2","68","70","65","","","","","","","","","","","","","","","",""
"978","
          <p id=""word"" style=""font-size: 40px;"">blanter</p>
          <p style=""font-size: 16px;"">F = YES &nbsp;&nbsp;&nbsp; J = NO</p>
        ","f","html-keyboard-response","235","2.1.0","346593","F=YES, J=NO","xaqujhs69k","2","68","70","65","","","","","","","","","blanter","radio1","pseudoword","pseudoword","j","false","",""
"null","<p style=""font-size: 50px;"">+</p>","null","html-keyboard-response","236","2.1.0","346907","F=YES, J=NO","xaqujhs69k","2","68","70","65","","","","","","","","","","","","","","","",""
"null","audio/beep-329314.mp3","null","audio-keyboard-response","237","2.1.0","348444","F=YES, J=NO","xaqujhs69k","2","68","70","65","","","","","","","","","","","","","","","",""
"null","audio/flaw.wav","null","audio-keyboard-response","238","2.1.0","349094","F=YES, J=NO","xaqujhs69k","2","68","70","65","","","","","","","","","","","","","","","",""
"659","
          <p id=""word"" style=""font-size: 40px;"">thwool</p>
          <p style=""font-size: 16px;"">F = YES &nbsp;&nbsp;&nbsp; J = NO</p>
        ","j","html-keyboard-response","239","2.1.0","349753","F=YES, J=NO","xaqujhs69k","2","68","70","65","","","","","","","","","thwool","flaw","pseudoword","pseudoword","j","true","",""
"null","<p style=""font-size: 50px;"">+</p>","null","html-keyboard-response","240","2.1.0","350056","F=YES, J=NO","xaqujhs69k","2","68","70","65","","","","","","","","","","","","","","","",""
"null","audio/beep-329314.mp3","null","audio-keyboard-response","241","2.1.0","351584","F=YES, J=NO","xaqujhs69k","2","68","70","65","","","","","","","","","","","","","","","",""
"null","audio/menu.wav","null","audio-keyboard-response","242","2.1.0","352134","F=YES, J=NO","xaqujhs69k","2","68","70","65","","","","","","","","","","","","","","","",""
"708","
          <p id=""word"" style=""font-size: 40px;"">navigate</p>
          <p style=""font-size: 16px;"">F = YES &nbsp;&nbsp;&nbsp; J = NO</p>
        ","f","html-keyboard-response","243","2.1.0","352842","F=YES, J=NO","xaqujhs69k","2","68","70","65","","","","","","","","","navigate","menu","metaphor","experimental","f","true","",""
"null","<p style=""font-size: 50px;"">+</p>","null","html-keyboard-response","244","2.1.0","353144","F=YES, J=NO","xaqujhs69k","2","68","70","65","","","","","","","","","","","","","","","",""
"null","audio/beep-329314.mp3","null","audio-keyboard-response","245","2.1.0","354684","F=YES, J=NO","xaqujhs69k","2","68","70","65","","","","","","","","","","","","","","","",""
"null","audio/show.wav","null","audio-keyboard-response","246","2.1.0","355254","F=YES, J=NO","xaqujhs69k","2","68","70","65","","","","","","","","","","","","","","","",""
"756","
          <p id=""word"" style=""font-size: 40px;"">smark</p>
          <p style=""font-size: 16px;"">F = YES &nbsp;&nbsp;&nbsp; J = NO</p>
        ","j","html-keyboard-response","247","2.1.0","356010","F=YES, J=NO","xaqujhs69k","2","68","70","65","","","","","","","","","smark","show","pseudoword","pseudoword","j","true","",""
"null","<p style=""font-size: 50px;"">+</p>","null","html-keyboard-response","248","2.1.0","356323","F=YES, J=NO","xaqujhs69k","2","68","70","65","","","","","","","","","","","","","","","",""
"null","audio/beep-329314.mp3","null","audio-keyboard-response","249","2.1.0","357844","F=YES, J=NO","xaqujhs69k","2","68","70","65","","","","","","","","","","","","","","","",""
"null","audio/chance.wav","null","audio-keyboard-response","250","2.1.0","358494","F=YES, J=NO","xaqujhs69k","2","68","70","65","","","","","","","","","","","","","","","",""
"900","
          <p id=""word"" style=""font-size: 40px;"">seize</p>
          <p style=""font-size: 16px;"">F = YES &nbsp;&nbsp;&nbsp; J = NO</p>
        ","f","html-keyboard-response","251","2.1.0","359394","F=YES, J=NO","xaqujhs69k","2","68","70","65","","","","","","","","","seize","chance","metaphor","experimental","f","true","",""
"null","<p style=""font-size: 50px;"">+</p>","null","html-keyboard-response","252","2.1.0","359710","F=YES, J=NO","xaqujhs69k","2","68","70","65","","","","","","","","","","","","","","","",""
"null","audio/beep-329314.mp3","null","audio-keyboard-response","253","2.1.0","361244","F=YES, J=NO","xaqujhs69k","2","68","70","65","","","","","","","","","","","","","","","",""
"null","audio/prisoner.wav","null","audio-keyboard-response","254","2.1.0","361734","F=YES, J=NO","xaqujhs69k","2","68","70","65","","","","","","","","","","","","","","","",""
"797","
          <p id=""word"" style=""font-size: 40px;"">release</p>
          <p style=""font-size: 16px;"">F = YES &nbsp;&nbsp;&nbsp; J = NO</p>
        ","f","html-keyboard-response","255","2.1.0","362531","F=YES, J=NO","xaqujhs69k","2","68","70","65","","","","","","","","","release","prisoner","literal","experimental","f","true","",""
"null","<p style=""font-size: 50px;"">+</p>","null","html-keyboard-response","256","2.1.0","362835","F=YES, J=NO","xaqujhs69k","2","68","70","65","","","","","","","","","","","","","","","",""
"null","audio/beep-329314.mp3","null","audio-keyboard-response","257","2.1.0","364364","F=YES, J=NO","xaqujhs69k","2","68","70","65","","","","","","","","","","","","","","","",""
"null","audio/age1.wav","null","audio-keyboard-response","258","2.1.0","364894","F=YES, J=NO","xaqujhs69k","2","68","70","65","","","","","","","","","","","","","","","",""
"749","
          <p id=""word"" style=""font-size: 40px;"">lachry</p>
          <p style=""font-size: 16px;"">F = YES &nbsp;&nbsp;&nbsp; J = NO</p>
        ","j","html-keyboard-response","259","2.1.0","365643","F=YES, J=NO","xaqujhs69k","2","68","70","65","","","","","","","","","lachry","age1","pseudoword","pseudoword","j","true","",""
"null","<p style=""font-size: 50px;"">+</p>","null","html-keyboard-response","260","2.1.0","365951","F=YES, J=NO","xaqujhs69k","2","68","70","65","","","","","","","","","","","","","","","",""
"null","audio/beep-329314.mp3","null","audio-keyboard-response","261","2.1.0","367484","F=YES, J=NO","xaqujhs69k","2","68","70","65","","","","","","","","","","","","","","","",""
"null","audio/theory1.wav","null","audio-keyboard-response","262","2.1.0","368154","F=YES, J=NO","xaqujhs69k","2","68","70","65","","","","","","","","","","","","","","","",""
"1106","
          <p id=""word"" style=""font-size: 40px;"">scolve</p>
          <p style=""font-size: 16px;"">F = YES &nbsp;&nbsp;&nbsp; J = NO</p>
        ","j","html-keyboard-response","263","2.1.0","369260","F=YES, J=NO","xaqujhs69k","2","68","70","65","","","","","","","","","scolve","theory1","pseudoword","pseudoword","j","true","",""
"null","<p style=""font-size: 50px;"">+</p>","null","html-keyboard-response","264","2.1.0","369570","F=YES, J=NO","xaqujhs69k","2","68","70","65","","","","","","","","","","","","","","","",""
"null","audio/beep-329314.mp3","null","audio-keyboard-response","265","2.1.0","371104","F=YES, J=NO","xaqujhs69k","2","68","70","65","","","","","","","","","","","","","","","",""
"null","audio/camera1.wav","null","audio-keyboard-response","266","2.1.0","371614","F=YES, J=NO","xaqujhs69k","2","68","70","65","","","","","","","","","","","","","","","",""
"806","
          <p id=""word"" style=""font-size: 40px;"">stir</p>
          <p style=""font-size: 16px;"">F = YES &nbsp;&nbsp;&nbsp; J = NO</p>
        ","j","html-keyboard-response","267","2.1.0","372421","F=YES, J=NO","xaqujhs69k","2","68","70","65","","","","","","","","","stir","camera1","filler","filler","f","false","",""
"null","<p style=""font-size: 50px;"">+</p>","null","html-keyboard-response","268","2.1.0","372725","F=YES, J=NO","xaqujhs69k","2","68","70","65","","","","","","","","","","","","","","","",""
"null","audio/beep-329314.mp3","null","audio-keyboard-response","269","2.1.0","374264","F=YES, J=NO","xaqujhs69k","2","68","70","65","","","","","","","","","","","","","","","",""
"null","audio/mind.wav","null","audio-keyboard-response","270","2.1.0","374854","F=YES, J=NO","xaqujhs69k","2","68","70","65","","","","","","","","","","","","","","","",""
"638","
          <p id=""word"" style=""font-size: 40px;"">crainate</p>
          <p style=""font-size: 16px;"">F = YES &nbsp;&nbsp;&nbsp; J = NO</p>
        ","f","html-keyboard-response","271","2.1.0","375493","F=YES, J=NO","xaqujhs69k","2","68","70","65","","","","","","","","","crainate","mind","pseudoword","pseudoword","j","false","",""
"null","<p style=""font-size: 50px;"">+</p>","null","html-keyboard-response","272","2.1.0","375802","F=YES, J=NO","xaqujhs69k","2","68","70","65","","","","","","","","","","","","","","","",""
"null","audio/beep-329314.mp3","null","audio-keyboard-response","273","2.1.0","377324","F=YES, J=NO","xaqujhs69k","2","68","70","65","","","","","","","","","","","","","","","",""
"null","audio/planet1.wav","null","audio-keyboard-response","274","2.1.0","377934","F=YES, J=NO","xaqujhs69k","2","68","70","65","","","","","","","","","","","","","","","",""
"679","
          <p id=""word"" style=""font-size: 40px;"">save</p>
          <p style=""font-size: 16px;"">F = YES &nbsp;&nbsp;&nbsp; J = NO</p>
        ","f","html-keyboard-response","275","2.1.0","378613","F=YES, J=NO","xaqujhs69k","2","68","70","65","","","","","","","","","save","planet1","metaphor","experimental","f","true","",""
"null","<p style=""font-size: 50px;"">+</p>","null","html-keyboard-response","276","2.1.0","378930","F=YES, J=NO","xaqujhs69k","2","68","70","65","","","","","","","","","","","","","","","",""
"null","audio/beep-329314.mp3","null","audio-keyboard-response","277","2.1.0","380464","F=YES, J=NO","xaqujhs69k","2","68","70","65","","","","","","","","","","","","","","","",""
"null","audio/novel.wav","null","audio-keyboard-response","278","2.1.0","380974","F=YES, J=NO","xaqujhs69k","2","68","70","65","","","","","","","","","","","","","","","",""
"768","
          <p id=""word"" style=""font-size: 40px;"">type</p>
          <p style=""font-size: 16px;"">F = YES &nbsp;&nbsp;&nbsp; J = NO</p>
        ","f","html-keyboard-response","279","2.1.0","381742","F=YES, J=NO","xaqujhs69k","2","68","70","65","","","","","","","","","type","novel","filler","filler","f","true","",""
"null","<p style=""font-size: 50px;"">+</p>","null","html-keyboard-response","280","2.1.0","382055","F=YES, J=NO","xaqujhs69k","2","68","70","65","","","","","","","","","","","","","","","",""
"null","audio/beep-329314.mp3","null","audio-keyboard-response","281","2.1.0","383584","F=YES, J=NO","xaqujhs69k","2","68","70","65","","","","","","","","","","","","","","","",""
"null","audio/bottle.wav","null","audio-keyboard-response","282","2.1.0","384074","F=YES, J=NO","xaqujhs69k","2","68","70","65","","","","","","","","","","","","","","","",""
"492","
          <p id=""word"" style=""font-size: 40px;"">watch</p>
          <p style=""font-size: 16px;"">F = YES &nbsp;&nbsp;&nbsp; J = NO</p>
        ","f","html-keyboard-response","283","2.1.0","384566","F=YES, J=NO","xaqujhs69k","2","68","70","65","","","","","","","","","watch","bottle","filler","filler","f","true","",""
"null","<p style=""font-size: 50px;"">+</p>","null","html-keyboard-response","284","2.1.0","384875","F=YES, J=NO","xaqujhs69k","2","68","70","65","","","","","","","","","","","","","","","",""
"null","audio/beep-329314.mp3","null","audio-keyboard-response","285","2.1.0","386404","F=YES, J=NO","xaqujhs69k","2","68","70","65","","","","","","","","","","","","","","","",""
"null","audio/emotion.wav","null","audio-keyboard-response","286","2.1.0","387074","F=YES, J=NO","xaqujhs69k","2","68","70","65","","","","","","","","","","","","","","","",""
"548","
          <p id=""word"" style=""font-size: 40px;"">devering</p>
          <p style=""font-size: 16px;"">F = YES &nbsp;&nbsp;&nbsp; J = NO</p>
        ","f","html-keyboard-response","287","2.1.0","387622","F=YES, J=NO","xaqujhs69k","2","68","70","65","","","","","","","","","devering","emotion","pseudoword","pseudoword","j","false","",""
"null","<p style=""font-size: 50px;"">+</p>","null","html-keyboard-response","288","2.1.0","387934","F=YES, J=NO","xaqujhs69k","2","68","70","65","","","","","","","","","","","","","","","",""
"null","audio/beep-329314.mp3","null","audio-keyboard-response","289","2.1.0","389464","F=YES, J=NO","xaqujhs69k","2","68","70","65","","","","","","","","","","","","","","","",""
"null","audio/gift1.wav","null","audio-keyboard-response","290","2.1.0","389954","F=YES, J=NO","xaqujhs69k","2","68","70","65","","","","","","","","","","","","","","","",""
"469","
          <p id=""word"" style=""font-size: 40px;"">give</p>
          <p style=""font-size: 16px;"">F = YES &nbsp;&nbsp;&nbsp; J = NO</p>
        ","f","html-keyboard-response","291","2.1.0","390423","F=YES, J=NO","xaqujhs69k","2","68","70","65","","","","","","","","","give","gift1","literal","experimental","f","true","",""
"null","<p style=""font-size: 50px;"">+</p>","null","html-keyboard-response","292","2.1.0","390737","F=YES, J=NO","xaqujhs69k","2","68","70","65","","","","","","","","","","","","","","","",""
"null","audio/beep-329314.mp3","null","audio-keyboard-response","293","2.1.0","392264","F=YES, J=NO","xaqujhs69k","2","68","70","65","","","","","","","","","","","","","","","",""
"null","audio/train.wav","null","audio-keyboard-response","294","2.1.0","392794","F=YES, J=NO","xaqujhs69k","2","68","70","65","","","","","","","","","","","","","","","",""
"421","
          <p id=""word"" style=""font-size: 40px;"">catch</p>
          <p style=""font-size: 16px;"">F = YES &nbsp;&nbsp;&nbsp; J = NO</p>
        ","f","html-keyboard-response","295","2.1.0","393215","F=YES, J=NO","xaqujhs69k","2","68","70","65","","","","","","","","","catch","train","metaphor","experimental","f","true","",""
"76035","<p>Excellent! You have finished block 2 of 8.</p>
                     <p>Feel free to take a 30 second break.</p>
                     <p>Press any key when you're ready to continue.</p>"," ","html-keyboard-response","296","2.1.0","469250","F=YES, J=NO","xaqujhs69k","2","68","70","65","","","","","","","","","","","","","","","",""
"1055","<p>Starting main block 3 of 8. Press any key to continue.</p>"," ","html-keyboard-response","297","2.1.0","470306","F=YES, J=NO","xaqujhs69k","2","68","70","65","","","","","","","","","","","","","","","",""
"null","<p style=""font-size: 50px;"">+</p>","null","html-keyboard-response","298","2.1.0","470613","F=YES, J=NO","xaqujhs69k","2","68","70","65","","","","","","","","","","","","","","","",""
"null","audio/beep-329314.mp3","null","audio-keyboard-response","299","2.1.0","472161","F=YES, J=NO","xaqujhs69k","2","68","70","65","","","","","","","","","","","","","","","",""
"null","audio/belief.wav","null","audio-keyboard-response","300","2.1.0","472771","F=YES, J=NO","xaqujhs69k","2","68","70","65","","","","","","","","","","","","","","","",""
"543","
          <p id=""word"" style=""font-size: 40px;"">share</p>
          <p style=""font-size: 16px;"">F = YES &nbsp;&nbsp;&nbsp; J = NO</p>
        ","f","html-keyboard-response","301","2.1.0","473314","F=YES, J=NO","xaqujhs69k","2","68","70","65","","","","","","","","","share","belief","metaphor","experimental","f","true","",""
"null","<p style=""font-size: 50px;"">+</p>","null","html-keyboard-response","302","2.1.0","473626","F=YES, J=NO","xaqujhs69k","2","68","70","65","","","","","","","","","","","","","","","",""
"null","audio/beep-329314.mp3","null","audio-keyboard-response","303","2.1.0","475161","F=YES, J=NO","xaqujhs69k","2","68","70","65","","","","","","","","","","","","","","","",""
"null","audio/purpose.wav","null","audio-keyboard-response","304","2.1.0","475811","F=YES, J=NO","xaqujhs69k","2","68","70","65","","","","","","","","","","","","","","","",""
"551","
          <p id=""word"" style=""font-size: 40px;"">defeat</p>
          <p style=""font-size: 16px;"">F = YES &nbsp;&nbsp;&nbsp; J = NO</p>
        ","f","html-keyboard-response","305","2.1.0","476363","F=YES, J=NO","xaqujhs69k","2","68","70","65","","","","","","","","","defeat","purpose","metaphor","experimental","f","true","",""
"null","<p style=""font-size: 50px;"">+</p>","null","html-keyboard-response","306","2.1.0","476676","F=YES, J=NO","xaqujhs69k","2","68","70","65","","","","","","","","","","","","","","","",""
"null","audio/beep-329314.mp3","null","audio-keyboard-response","307","2.1.0","478201","F=YES, J=NO","xaqujhs69k","2","68","70","65","","","","","","","","","","","","","","","",""
"null","audio/terrain.wav","null","audio-keyboard-response","308","2.1.0","478791","F=YES, J=NO","xaqujhs69k","2","68","70","65","","","","","","","","","","","","","","","",""
"484","
          <p id=""word"" style=""font-size: 40px;"">twist</p>
          <p style=""font-size: 16px;"">F = YES &nbsp;&nbsp;&nbsp; J = NO</p>
        ","f","html-keyboard-response","309","2.1.0","479275","F=YES, J=NO","xaqujhs69k","2","68","70","65","","","","","","","","","twist","terrain","filler","filler","f","true","",""
"null","<p style=""font-size: 50px;"">+</p>","null","html-keyboard-response","310","2.1.0","479586","F=YES, J=NO","xaqujhs69k","2","68","70","65","","","","","","","","","","","","","","","",""
"null","audio/beep-329314.mp3","null","audio-keyboard-response","311","2.1.0","481121","F=YES, J=NO","xaqujhs69k","2","68","70","65","","","","","","","","","","","","","","","",""
"null","audio/noise1.wav","null","audio-keyboard-response","312","2.1.0","481751","F=YES, J=NO","xaqujhs69k","2","68","70","65","","","","","","","","","","","","","","","",""
"1004","
          <p id=""word"" style=""font-size: 40px;"">slintered</p>
          <p style=""font-size: 16px;"">F = YES &nbsp;&nbsp;&nbsp; J = NO</p>
        ","j","html-keyboard-response","313","2.1.0","482756","F=YES, J=NO","xaqujhs69k","2","68","70","65","","","","","","","","","slintered","noise1","pseudoword","pseudoword","j","true","",""
"null","<p style=""font-size: 50px;"">+</p>","null","html-keyboard-response","314","2.1.0","483060","F=YES, J=NO","xaqujhs69k","2","68","70","65","","","","","","","","","","","","","","","",""
"null","audio/beep-329314.mp3","null","audio-keyboard-response","315","2.1.0","484601","F=YES, J=NO","xaqujhs69k","2","68","70","65","","","","","","","","","","","","","","","",""
"null","audio/holiday1.wav","null","audio-keyboard-response","316","2.1.0","485251","F=YES, J=NO","xaqujhs69k","2","68","70","65","","","","","","","","","","","","","","","",""
"785","
          <p id=""word"" style=""font-size: 40px;"">drivets</p>
          <p style=""font-size: 16px;"">F = YES &nbsp;&nbsp;&nbsp; J = NO</p>
        ","j","html-keyboard-response","317","2.1.0","486037","F=YES, J=NO","xaqujhs69k","2","68","70","65","","","","","","","","","drivets","holiday1","pseudoword","pseudoword","j","true","",""
"null","<p style=""font-size: 50px;"">+</p>","null","html-keyboard-response","318","2.1.0","486350","F=YES, J=NO","xaqujhs69k","2","68","70","65","","","","","","","","","","","","","","","",""
"null","audio/beep-329314.mp3","null","audio-keyboard-response","319","2.1.0","487881","F=YES, J=NO","xaqujhs69k","2","68","70","65","","","","","","","","","","","","","","","",""
"null","audio/grass.wav","null","audio-keyboard-response","320","2.1.0","488551","F=YES, J=NO","xaqujhs69k","2","68","70","65","","","","","","","","","","","","","","","",""
"725","
          <p id=""word"" style=""font-size: 40px;"">milames</p>
          <p style=""font-size: 16px;"">F = YES &nbsp;&nbsp;&nbsp; J = NO</p>
        ","j","html-keyboard-response","321","2.1.0","489277","F=YES, J=NO","xaqujhs69k","2","68","70","65","","","","","","","","","milames","grass","pseudoword","pseudoword","j","true","",""
"null","<p style=""font-size: 50px;"">+</p>","null","html-keyboard-response","322","2.1.0","489588","F=YES, J=NO","xaqujhs69k","2","68","70","65","","","","","","","","","","","","","","","",""
"null","audio/beep-329314.mp3","null","audio-keyboard-response","323","2.1.0","491121","F=YES, J=NO","xaqujhs69k","2","68","70","65","","","","","","","","","","","","","","","",""
"null","audio/mile1.wav","null","audio-keyboard-response","324","2.1.0","491631","F=YES, J=NO","xaqujhs69k","2","68","70","65","","","","","","","","","","","","","","","",""
"1310","
          <p id=""word"" style=""font-size: 40px;"">writch</p>
          <p style=""font-size: 16px;"">F = YES &nbsp;&nbsp;&nbsp; J = NO</p>
        ","f","html-keyboard-response","325","2.1.0","492942","F=YES, J=NO","xaqujhs69k","2","68","70","65","","","","","","","","","writch","mile1","pseudoword","pseudoword","j","false","",""
"null","<p style=""font-size: 50px;"">+</p>","null","html-keyboard-response","326","2.1.0","493258","F=YES, J=NO","xaqujhs69k","2","68","70","65","","","","","","","","","","","","","","","",""
"null","audio/beep-329314.mp3","null","audio-keyboard-response","327","2.1.0","494781","F=YES, J=NO","xaqujhs69k","2","68","70","65","","","","","","","","","","","","","","","",""
"null","audio/bottle.wav","null","audio-keyboard-response","328","2.1.0","495231","F=YES, J=NO","xaqujhs69k","2","68","70","65","","","","","","","","","","","","","","","",""
"646","
          <p id=""word"" style=""font-size: 40px;"">open</p>
          <p style=""font-size: 16px;"">F = YES &nbsp;&nbsp;&nbsp; J = NO</p>
        ","f","html-keyboard-response","329","2.1.0","495878","F=YES, J=NO","xaqujhs69k","2","68","70","65","","","","","","","","","open","bottle","literal","experimental","f","true","",""
"null","<p style=""font-size: 50px;"">+</p>","null","html-keyboard-response","330","2.1.0","496188","F=YES, J=NO","xaqujhs69k","2","68","70","65","","","","","","","","","","","","","","","",""
"null","audio/beep-329314.mp3","null","audio-keyboard-response","331","2.1.0","497721","F=YES, J=NO","xaqujhs69k","2","68","70","65","","","","","","","","","","","","","","","",""
"null","audio/voice.wav","null","audio-keyboard-response","332","2.1.0","498331","F=YES, J=NO","xaqujhs69k","2","68","70","65","","","","","","","","","","","","","","","",""
"610","
          <p id=""word"" style=""font-size: 40px;"">flood</p>
          <p style=""font-size: 16px;"">F = YES &nbsp;&nbsp;&nbsp; J = NO</p>
        ","f","html-keyboard-response","333","2.1.0","498942","F=YES, J=NO","xaqujhs69k","2","68","70","65","","","","","","","","","flood","voice","unrelated","experimental","f","true","",""
"null","<p style=""font-size: 50px;"">+</p>","null","html-keyboard-response","334","2.1.0","499256","F=YES, J=NO","xaqujhs69k","2","68","70","65","","","","","","","","","","","","","","","",""
"null","audio/beep-329314.mp3","null","audio-keyboard-response","335","2.1.0","500781","F=YES, J=NO","xaqujhs69k","2","68","70","65","","","","","","","","","","","","","","","",""
"null","audio/brain.wav","null","audio-keyboard-response","336","2.1.0","501391","F=YES, J=NO","xaqujhs69k","2","68","70","65","","","","","","","","","","","","","","","",""
"551","
          <p id=""word"" style=""font-size: 40px;"">throw</p>
          <p style=""font-size: 16px;"">F = YES &nbsp;&nbsp;&nbsp; J = NO</p>
        ","f","html-keyboard-response","337","2.1.0","501943","F=YES, J=NO","xaqujhs69k","2","68","70","65","","","","","","","","","throw","brain","filler","filler","f","true","",""
"null","<p style=""font-size: 50px;"">+</p>","null","html-keyboard-response","338","2.1.0","502251","F=YES, J=NO","xaqujhs69k","2","68","70","65","","","","","","","","","","","","","","","",""
"null","audio/beep-329314.mp3","null","audio-keyboard-response","339","2.1.0","503781","F=YES, J=NO","xaqujhs69k","2","68","70","65","","","","","","","","","","","","","","","",""
"null","audio/corpse1.wav","null","audio-keyboard-response","340","2.1.0","504431","F=YES, J=NO","xaqujhs69k","2","68","70","65","","","","","","","","","","","","","","","",""
"696","
          <p id=""word"" style=""font-size: 40px;"">bury</p>
          <p style=""font-size: 16px;"">F = YES &nbsp;&nbsp;&nbsp; J = NO</p>
        ","f","html-keyboard-response","341","2.1.0","505127","F=YES, J=NO","xaqujhs69k","2","68","70","65","","","","","","","","","bury","corpse1","literal","experimental","f","true","",""
"null","<p style=""font-size: 50px;"">+</p>","null","html-keyboard-response","342","2.1.0","505429","F=YES, J=NO","xaqujhs69k","2","68","70","65","","","","","","","","","","","","","","","",""
"null","audio/beep-329314.mp3","null","audio-keyboard-response","343","2.1.0","506961","F=YES, J=NO","xaqujhs69k","2","68","70","65","","","","","","","","","","","","","","","",""
"null","audio/beach1.wav","null","audio-keyboard-response","344","2.1.0","507691","F=YES, J=NO","xaqujhs69k","2","68","70","65","","","","","","","","","","","","","","","",""
"636","
          <p id=""word"" style=""font-size: 40px;"">drive</p>
          <p style=""font-size: 16px;"">F = YES &nbsp;&nbsp;&nbsp; J = NO</p>
        ","f","html-keyboard-response","345","2.1.0","508327","F=YES, J=NO","xaqujhs69k","2","68","70","65","","","","","","","","","drive","beach1","filler","filler","f","true","",""
"null","<p style=""font-size: 50px;"">+</p>","null","html-keyboard-response","346","2.1.0","508634","F=YES, J=NO","xaqujhs69k","2","68","70","65","","","","","","","","","","","","","","","",""
"null","audio/beep-329314.mp3","null","audio-keyboard-response","347","2.1.0","510161","F=YES, J=NO","xaqujhs69k","2","68","70","65","","","","","","","","","","","","","","","",""
"null","audio/client1.wav","null","audio-keyboard-response","348","2.1.0","510871","F=YES, J=NO","xaqujhs69k","2","68","70","65","","","","","","","","","","","","","","","",""
"840","
          <p id=""word"" style=""font-size: 40px;"">droothe</p>
          <p style=""font-size: 16px;"">F = YES &nbsp;&nbsp;&nbsp; J = NO</p>
        ","f","html-keyboard-response","349","2.1.0","511712","F=YES, J=NO","xaqujhs69k","2","68","70","65","","","","","","","","","droothe","client1","pseudoword","pseudoword","j","false","",""
"null","<p style=""font-size: 50px;"">+</p>","null","html-keyboard-response","350","2.1.0","512022","F=YES, J=NO","xaqujhs69k","2","68","70","65","","","","","","","","","","","","","","","",""
"null","audio/beep-329314.mp3","null","audio-keyboard-response","351","2.1.0","513561","F=YES, J=NO","xaqujhs69k","2","68","70","65","","","","","","","","","","","","","","","",""
"null","audio/lion1.wav","null","audio-keyboard-response","352","2.1.0","514111","F=YES, J=NO","xaqujhs69k","2","68","70","65","","","","","","","","","","","","","","","",""
"969","
          <p id=""word"" style=""font-size: 40px;"">wrestle</p>
          <p style=""font-size: 16px;"">F = YES &nbsp;&nbsp;&nbsp; J = NO</p>
        ","f","html-keyboard-response","353","2.1.0","515081","F=YES, J=NO","xaqujhs69k","2","68","70","65","","","","","","","","","wrestle","lion1","literal","experimental","f","true","",""
"null","<p style=""font-size: 50px;"">+</p>","null","html-keyboard-response","354","2.1.0","515393","F=YES, J=NO","xaqujhs69k","2","68","70","65","","","","","","","","","","","","","","","",""
"null","audio/beep-329314.mp3","null","audio-keyboard-response","355","2.1.0","516921","F=YES, J=NO","xaqujhs69k","2","68","70","65","","","","","","","","","","","","","","","",""
"null","audio/floor.wav","null","audio-keyboard-response","356","2.1.0","517491","F=YES, J=NO","xaqujhs69k","2","68","70","65","","","","","","","","","","","","","","","",""
"805","
          <p id=""word"" style=""font-size: 40px;"">mop</p>
          <p style=""font-size: 16px;"">F = YES &nbsp;&nbsp;&nbsp; J = NO</p>
        ","j","html-keyboard-response","357","2.1.0","518297","F=YES, J=NO","xaqujhs69k","2","68","70","65","","","","","","","","","mop","floor","filler","filler","f","false","",""
"null","<p style=""font-size: 50px;"">+</p>","null","html-keyboard-response","358","2.1.0","518607","F=YES, J=NO","xaqujhs69k","2","68","70","65","","","","","","","","","","","","","","","",""
"null","audio/beep-329314.mp3","null","audio-keyboard-response","359","2.1.0","520141","F=YES, J=NO","xaqujhs69k","2","68","70","65","","","","","","","","","","","","","","","",""
"null","audio/strength.wav","null","audio-keyboard-response","360","2.1.0","520851","F=YES, J=NO","xaqujhs69k","2","68","70","65","","","","","","","","","","","","","","","",""
"806","
          <p id=""word"" style=""font-size: 40px;"">plabet</p>
          <p style=""font-size: 16px;"">F = YES &nbsp;&nbsp;&nbsp; J = NO</p>
        ","j","html-keyboard-response","361","2.1.0","521657","F=YES, J=NO","xaqujhs69k","2","68","70","65","","","","","","","","","plabet","strength","pseudoword","pseudoword","j","true","",""
"1000","<p>Excellent! You have finished block 3 of 8.</p>
                     <p>Feel free to take a 30 second break.</p>
                     <p>Press any key when you're ready to continue.</p>"," ","html-keyboard-response","362","2.1.0","522658","F=YES, J=NO","xaqujhs69k","2","68","70","65","","","","","","","","","","","","","","","",""
"456","<p>Starting main block 4 of 8. Press any key to continue.</p>","f","html-keyboard-response","363","2.1.0","523114","F=YES, J=NO","xaqujhs69k","2","68","70","65","","","","","","","","","","","","","","","",""
"null","<p style=""font-size: 50px;"">+</p>","null","html-keyboard-response","364","2.1.0","523419","F=YES, J=NO","xaqujhs69k","2","68","70","65","","","","","","","","","","","","","","","",""
"null","audio/beep-329314.mp3","null","audio-keyboard-response","365","2.1.0","524941","F=YES, J=NO","xaqujhs69k","2","68","70","65","","","","","","","","","","","","","","","",""
"null","audio/dome.wav","null","audio-keyboard-response","366","2.1.0","525371","F=YES, J=NO","xaqujhs69k","2","68","70","65","","","","","","","","","","","","","","","",""
"583","
          <p id=""word"" style=""font-size: 40px;"">scrupliness</p>
          <p style=""font-size: 16px;"">F = YES &nbsp;&nbsp;&nbsp; J = NO</p>
        ","j","html-keyboard-response","367","2.1.0","525954","F=YES, J=NO","xaqujhs69k","2","68","70","65","","","","","","","","","scrupliness","dome","pseudoword","pseudoword","j","true","",""
"null","<p style=""font-size: 50px;"">+</p>","null","html-keyboard-response","368","2.1.0","526255","F=YES, J=NO","xaqujhs69k","2","68","70","65","","","","","","","","","","","","","","","",""
"null","audio/beep-329314.mp3","null","audio-keyboard-response","369","2.1.0","527781","F=YES, J=NO","xaqujhs69k","2","68","70","65","","","","","","","","","","","","","","","",""
"null","audio/cloud1.wav","null","audio-keyboard-response","370","2.1.0","528351","F=YES, J=NO","xaqujhs69k","2","68","70","65","","","","","","","","","","","","","","","",""
"747","
          <p id=""word"" style=""font-size: 40px;"">brotant</p>
          <p style=""font-size: 16px;"">F = YES &nbsp;&nbsp;&nbsp; J = NO</p>
        ","j","html-keyboard-response","371","2.1.0","529098","F=YES, J=NO","xaqujhs69k","2","68","70","65","","","","","","","","","brotant","cloud1","pseudoword","pseudoword","j","true","",""
"null","<p style=""font-size: 50px;"">+</p>","null","html-keyboard-response","372","2.1.0","529407","F=YES, J=NO","xaqujhs69k","2","68","70","65","","","","","","","","","","","","","","","",""
"null","audio/beep-329314.mp3","null","audio-keyboard-response","373","2.1.0","530941","F=YES, J=NO","xaqujhs69k","2","68","70","65","","","","","","","","","","","","","","","",""
"null","audio/mile1.wav","null","audio-keyboard-response","374","2.1.0","531411","F=YES, J=NO","xaqujhs69k","2","68","70","65","","","","","","","","","","","","","","","",""
"463","
          <p id=""word"" style=""font-size: 40px;"">run</p>
          <p style=""font-size: 16px;"">F = YES &nbsp;&nbsp;&nbsp; J = NO</p>
        ","f","html-keyboard-response","375","2.1.0","531875","F=YES, J=NO","xaqujhs69k","2","68","70","65","","","","","","","","","run","mile1","literal","experimental","f","true","",""
"null","<p style=""font-size: 50px;"">+</p>","null","html-keyboard-response","376","2.1.0","532186","F=YES, J=NO","xaqujhs69k","2","68","70","65","","","","","","","","","","","","","","","",""
"null","audio/beep-329314.mp3","null","audio-keyboard-response","377","2.1.0","533721","F=YES, J=NO","xaqujhs69k","2","68","70","65","","","","","","","","","","","","","","","",""
"null","audio/foot1.wav","null","audio-keyboard-response","378","2.1.0","534311","F=YES, J=NO","xaqujhs69k","2","68","70","65","","","","","","","","","","","","","","","",""
"676","
          <p id=""word"" style=""font-size: 40px;"">thrutt</p>
          <p style=""font-size: 16px;"">F = YES &nbsp;&nbsp;&nbsp; J = NO</p>
        ","j","html-keyboard-response","379","2.1.0","534987","F=YES, J=NO","xaqujhs69k","2","68","70","65","","","","","","","","","thrutt","foot1","pseudoword","pseudoword","j","true","",""
"null","<p style=""font-size: 50px;"">+</p>","null","html-keyboard-response","380","2.1.0","535301","F=YES, J=NO","xaqujhs69k","2","68","70","65","","","","","","","","","","","","","","","",""
"null","audio/beep-329314.mp3","null","audio-keyboard-response","381","2.1.0","536841","F=YES, J=NO","xaqujhs69k","2","68","70","65","","","","","","","","","","","","","","","",""
"null","audio/weapon.wav","null","audio-keyboard-response","382","2.1.0","537411","F=YES, J=NO","xaqujhs69k","2","68","70","65","","","","","","","","","","","","","","","",""
"576","
          <p id=""word"" style=""font-size: 40px;"">carry</p>
          <p style=""font-size: 16px;"">F = YES &nbsp;&nbsp;&nbsp; J = NO</p>
        ","f","html-keyboard-response","383","2.1.0","537988","F=YES, J=NO","xaqujhs69k","2","68","70","65","","","","","","","","","carry","weapon","literal","experimental","f","true","",""
"null","<p style=""font-size: 50px;"">+</p>","null","html-keyboard-response","384","2.1.0","538290","F=YES, J=NO","xaqujhs69k","2","68","70","65","","","","","","","","","","","","","","","",""
"null","audio/beep-329314.mp3","null","audio-keyboard-response","385","2.1.0","539821","F=YES, J=NO","xaqujhs69k","2","68","70","65","","","","","","","","","","","","","","","",""
"null","audio/alarm1.wav","null","audio-keyboard-response","386","2.1.0","540431","F=YES, J=NO","xaqujhs69k","2","68","70","65","","","","","","","","","","","","","","","",""
"621","
          <p id=""word"" style=""font-size: 40px;"">swetp</p>
          <p style=""font-size: 16px;"">F = YES &nbsp;&nbsp;&nbsp; J = NO</p>
        ","j","html-keyboard-response","387","2.1.0","541052","F=YES, J=NO","xaqujhs69k","2","68","70","65","","","","","","","","","swetp","alarm1","pseudoword","pseudoword","j","true","",""
"null","<p style=""font-size: 50px;"">+</p>","null","html-keyboard-response","388","2.1.0","541353","F=YES, J=NO","xaqujhs69k","2","68","70","65","","","","","","","","","","","","","","","",""
"null","audio/beep-329314.mp3","null","audio-keyboard-response","389","2.1.0","542881","F=YES, J=NO","xaqujhs69k","2","68","70","65","","","","","","","","","","","","","","","",""
"null","audio/alarm1.wav","null","audio-keyboard-response","390","2.1.0","543451","F=YES, J=NO","xaqujhs69k","2","68","70","65","","","","","","","","","","","","","","","",""
"545","
          <p id=""word"" style=""font-size: 40px;"">lock</p>
          <p style=""font-size: 16px;"">F = YES &nbsp;&nbsp;&nbsp; J = NO</p>
        ","f","html-keyboard-response","391","2.1.0","543997","F=YES, J=NO","xaqujhs69k","2","68","70","65","","","","","","","","","lock","alarm1","filler","filler","f","true","",""
