"rt","stimulus","response","trial_type","trial_index","plugin_version","time_elapsed","response_mapping","subject_id","list_index","lextale_score","lextale_word_score","lextale_nonword_score","success","timeout","failed_images","failed_audio","failed_video","task","isWord","isDummy","target","prime","prime_type","stimulus_type","correct_response","correct","section","question_order"
"2971","
    <div style=""max-width: 800px; margin: auto; text-align: left;"">
      <h2>STANFORD UNIVERSITY</h2>
      <h3>Research Information Sheet</h3>
      <p><strong>Protocol Director:</strong> Robert Hawkins<br>
      <strong>Protocol Title:</strong> Communication and social cognition in natural audiovisual contexts<br>
      <strong>IRB#:</strong> 77226</p>

      <p><strong>DESCRIPTION:</strong> You are invited to participate in a research study about language and communication. The purpose of the research is to understand how you interact and communicate with other people in naturalistic settings as a fluent English speaker. This research will be conducted through the Prolific platform, including participants from the US, UK, and Canada. If you decide to participate in this research, you will play a communication game in a group with one or more partners.</p>

      <p><strong>TIME INVOLVEMENT:</strong> The task will last the amount of time advertised on Prolific. You are free to withdraw from the study at any time.</p>

      <p><strong>RISKS AND BENEFITS:</strong> You may become frustrated if your partner gets distracted, or experience discomfort if other participants in your group send text that is inappropriate for the task. We ask you to please be respectful of other participants you might be interacting with to mitigate these risks. You may also experience discomfort when being asked to discuss or challenge emotionally salient political beliefs. Study data will be stored securely, in compliance with Stanford University standards, minimizing the risk of confidentiality breach. This study advances our scientific understanding of how people communicate and collaborate in naturalistic settings. This study may lead to further insights about what can go wrong in teamwork, suggest potential interventions to overcome these barriers, and help to develop assistive technologies that collaborate with human partners. We cannot and do not guarantee or promise that you will receive any benefits from this study.</p>

      <p><strong>PAYMENTS:</strong> You will receive payment in the amount advertised on Prolific. If you do not complete this study, you will receive prorated payment based on the time that you have spent. Additionally, you may be eligible for bonus payments as described in the instructions.</p>

      <p><strong>PARTICIPANT’S RIGHTS:</strong> If you have read this form and have decided to participate in this project, please understand your participation is voluntary and you have the right to withdraw your consent or discontinue participation at any time without penalty or loss of benefits to which you are otherwise entitled. The alternative is not to participate. You have the right to refuse to answer particular questions. The results of this research study may be presented at scientific or professional meetings or published in scientific journals. Your individual privacy will be maintained in all published and written data resulting from the study. In accordance with scientific norms, the data from this study may be used or shared with other researchers for future research (after removing personally identifying information) without additional consent from you.</p>

      <p><strong>CONTACT INFORMATION:</strong><br>
      Questions: If you have any questions, concerns or complaints about this research, its procedures, risks and benefits, contact the Protocol Director, Robert Hawkins (<a href=""mailto:rdhawkins@stanford.edu"">rdhawkins@stanford.edu</a>, 217-549-6923).<br>
      Independent Contact: If you are not satisfied with how this study is being conducted, or if you have any concerns, complaints, or general questions about the research or your rights as a participant, please contact the Stanford Institutional Review Board (IRB) to speak to someone independent of the research team at 650-723-2480 or toll free at 1-866-680-2906, or email at <a href=""mailto:irbnon-med@stanford.edu"">irbnon-med@stanford.edu</a>. You can also write to the Stanford IRB, Stanford University, 1705 El Camino Real, Palo Alto, CA 94306.</p>

      <p><strong>Please save or print a copy of this page for your records.</strong></p>
      <p>If you agree to participate in this research, click ""Continue"" below.</p>
    </div>
  ","0","html-button-response","0","2.1.0","2977","F=YES, J=NO","xxczzzz4ma","1","71","78","65","","","","","","","","","","","","","","","",""
"11753","
    <div style=""max-width: 800px; margin: auto; text-align: left;"">
      <h2>Welcome!</h2>
      <p>Thank you for participating in this study. The experiment consists of three parts:</p>
      <ol>
        <li>An English vocabulary test</li>
        <li>A main task in which you will hear and see words, and decide whether the written word is a real English word</li>
        <li>A brief survey about your background</li>
      </ol>
      <p>Each part will be introduced before it begins.</p>
      <p>Please make sure you are in a quiet environment and can hear audio clearly for the final task.</p>
      <p style=""margin-top: 2em;"">Press any key to begin.</p>
    </div>
  ","Enter","html-keyboard-response","1","2.1.0","14733","F=YES, J=NO","xxczzzz4ma","1","71","78","65","","","","","","","","","","","","","","","",""
"","","","preload","2","2.1.0","15736","F=YES, J=NO","xxczzzz4ma","1","71","78","65","true","false","[]","[]","[]","","","","","","","","","","",""
"2295","
    <div style=""max-width: 800px; margin: auto; text-align: left;"">
      <h2>Part 1: Vocabulary Test</h2>
      <p>You will now complete the first part of the study: a short English vocabulary test.</p>
      <p>This test is called <strong>LexTALE</strong> and helps us get a general sense of your English proficiency.</p>
      <p style=""margin-top: 2em;"">Press any key to continue.</p>
    </div>
  ","Enter","html-keyboard-response","3","2.1.0","18031","F=YES, J=NO","xxczzzz4ma","1","71","78","65","","","","","","","","","","","","","","","",""
"4568","
    <div style=""max-width: 800px; margin: auto; text-align: left;"">
      <h2>LexTALE Vocabulary Test</h2>
      <p>In this test, you will see a series of letter strings—one at a time.</p>
      <p>Your task is to decide whether each string is a real English word.</p>
      <p><strong>Key responses:</strong></p>
      <ul>
        <li><strong>F</strong> = YES (real English word)</li>
        <li><strong>J</strong> = NO (not a real English word)</li>
      </ul>
      <p>There is no time limit, but please try to be accurate.</p>
      <p style=""margin-top: 2em;"">Press any key to begin.</p>
    </div>
  ","Enter","html-keyboard-response","4","2.1.0","22601","F=YES, J=NO","xxczzzz4ma","1","71","78","65","","","","","","","","","","","","","","","",""
"1361","
  <p style=""font-size: 40px;"">platery</p>
  <p style=""font-size: 16px;"">F = YES &nbsp;&nbsp;&nbsp; J = NO</p>
","f","html-keyboard-response","5","2.1.0","23963","F=YES, J=NO","xxczzzz4ma","1","71","78","65","","","","","","lextale","false","true","","","","","","","",""
"894","
  <p style=""font-size: 40px;"">denial</p>
  <p style=""font-size: 16px;"">F = YES &nbsp;&nbsp;&nbsp; J = NO</p>
","f","html-keyboard-response","6","2.1.0","24858","F=YES, J=NO","xxczzzz4ma","1","71","78","65","","","","","","lextale","true","true","","","","","","","",""
"2807","
  <p style=""font-size: 40px;"">marrit</p>
  <p style=""font-size: 16px;"">F = YES &nbsp;&nbsp;&nbsp; J = NO</p>
","j","html-keyboard-response","7","2.1.0","27667","F=YES, J=NO","xxczzzz4ma","1","71","78","65","","","","","","lextale","false","true","","","","","","","",""
"983","
  <p style=""font-size: 40px;"">bottle</p>
  <p style=""font-size: 16px;"">F = YES &nbsp;&nbsp;&nbsp; J = NO</p>
","j","html-keyboard-response","8","2.1.0","28651","F=YES, J=NO","xxczzzz4ma","1","71","78","65","","","","","","lextale","true","false","","","","","","","",""
"2030","
  <p style=""font-size: 40px;"">birst</p>
  <p style=""font-size: 16px;"">F = YES &nbsp;&nbsp;&nbsp; J = NO</p>
","j","html-keyboard-response","9","2.1.0","30682","F=YES, J=NO","xxczzzz4ma","1","71","78","65","","","","","","lextale","false","false","","","","","","","",""
"671","
  <p style=""font-size: 40px;"">envy</p>
  <p style=""font-size: 16px;"">F = YES &nbsp;&nbsp;&nbsp; J = NO</p>
","f","html-keyboard-response","10","2.1.0","31354","F=YES, J=NO","xxczzzz4ma","1","71","78","65","","","","","","lextale","true","false","","","","","","","",""
"1244","
  <p style=""font-size: 40px;"">brang</p>
  <p style=""font-size: 16px;"">F = YES &nbsp;&nbsp;&nbsp; J = NO</p>
","j","html-keyboard-response","11","2.1.0","32599","F=YES, J=NO","xxczzzz4ma","1","71","78","65","","","","","","lextale","false","false","","","","","","","",""
"579","
  <p style=""font-size: 40px;"">huge</p>
  <p style=""font-size: 16px;"">F = YES &nbsp;&nbsp;&nbsp; J = NO</p>
","f","html-keyboard-response","12","2.1.0","33179","F=YES, J=NO","xxczzzz4ma","1","71","78","65","","","","","","lextale","true","false","","","","","","","",""
"1276","
  <p style=""font-size: 40px;"">plove</p>
  <p style=""font-size: 16px;"">F = YES &nbsp;&nbsp;&nbsp; J = NO</p>
","f","html-keyboard-response","13","2.1.0","34456","F=YES, J=NO","xxczzzz4ma","1","71","78","65","","","","","","lextale","false","false","","","","","","","",""
"583","
  <p style=""font-size: 40px;"">border</p>
  <p style=""font-size: 16px;"">F = YES &nbsp;&nbsp;&nbsp; J = NO</p>
","f","html-keyboard-response","14","2.1.0","35039","F=YES, J=NO","xxczzzz4ma","1","71","78","65","","","","","","lextale","true","false","","","","","","","",""
"1449","
  <p style=""font-size: 40px;"">flimsy</p>
  <p style=""font-size: 16px;"">F = YES &nbsp;&nbsp;&nbsp; J = NO</p>
","f","html-keyboard-response","15","2.1.0","36490","F=YES, J=NO","xxczzzz4ma","1","71","78","65","","","","","","lextale","true","false","","","","","","","",""
"564","
  <p style=""font-size: 40px;"">drain</p>
  <p style=""font-size: 16px;"">F = YES &nbsp;&nbsp;&nbsp; J = NO</p>
","f","html-keyboard-response","16","2.1.0","37055","F=YES, J=NO","xxczzzz4ma","1","71","78","65","","","","","","lextale","true","false","","","","","","","",""
"1724","
  <p style=""font-size: 40px;"">twindle</p>
  <p style=""font-size: 16px;"">F = YES &nbsp;&nbsp;&nbsp; J = NO</p>
","f","html-keyboard-response","17","2.1.0","38780","F=YES, J=NO","xxczzzz4ma","1","71","78","65","","","","","","lextale","false","false","","","","","","","",""
"627","
  <p style=""font-size: 40px;"">propose</p>
  <p style=""font-size: 16px;"">F = YES &nbsp;&nbsp;&nbsp; J = NO</p>
","f","html-keyboard-response","18","2.1.0","39408","F=YES, J=NO","xxczzzz4ma","1","71","78","65","","","","","","lextale","true","false","","","","","","","",""
"1073","
  <p style=""font-size: 40px;"">forlay</p>
  <p style=""font-size: 16px;"">F = YES &nbsp;&nbsp;&nbsp; J = NO</p>
","j","html-keyboard-response","19","2.1.0","40483","F=YES, J=NO","xxczzzz4ma","1","71","78","65","","","","","","lextale","false","false","","","","","","","",""
"856","
  <p style=""font-size: 40px;"">tenant</p>
  <p style=""font-size: 16px;"">F = YES &nbsp;&nbsp;&nbsp; J = NO</p>
","f","html-keyboard-response","20","2.1.0","41340","F=YES, J=NO","xxczzzz4ma","1","71","78","65","","","","","","lextale","true","false","","","","","","","",""
"642","
  <p style=""font-size: 40px;"">strain</p>
  <p style=""font-size: 16px;"">F = YES &nbsp;&nbsp;&nbsp; J = NO</p>
","f","html-keyboard-response","21","2.1.0","41983","F=YES, J=NO","xxczzzz4ma","1","71","78","65","","","","","","lextale","true","false","","","","","","","",""
"1132","
  <p style=""font-size: 40px;"">holster</p>
  <p style=""font-size: 16px;"">F = YES &nbsp;&nbsp;&nbsp; J = NO</p>
","j","html-keyboard-response","22","2.1.0","43115","F=YES, J=NO","xxczzzz4ma","1","71","78","65","","","","","","lextale","true","false","","","","","","","",""
"932","
  <p style=""font-size: 40px;"">hinder</p>
  <p style=""font-size: 16px;"">F = YES &nbsp;&nbsp;&nbsp; J = NO</p>
","f","html-keyboard-response","23","2.1.0","44049","F=YES, J=NO","xxczzzz4ma","1","71","78","65","","","","","","lextale","true","false","","","","","","","",""
"1249","
  <p style=""font-size: 40px;"">swindle</p>
  <p style=""font-size: 16px;"">F = YES &nbsp;&nbsp;&nbsp; J = NO</p>
","f","html-keyboard-response","24","2.1.0","45299","F=YES, J=NO","xxczzzz4ma","1","71","78","65","","","","","","lextale","true","false","","","","","","","",""
"1003","
  <p style=""font-size: 40px;"">nuder</p>
  <p style=""font-size: 16px;"">F = YES &nbsp;&nbsp;&nbsp; J = NO</p>
","j","html-keyboard-response","25","2.1.0","46303","F=YES, J=NO","xxczzzz4ma","1","71","78","65","","","","","","lextale","false","false","","","","","","","",""
"577","
  <p style=""font-size: 40px;"">pillow</p>
  <p style=""font-size: 16px;"">F = YES &nbsp;&nbsp;&nbsp; J = NO</p>
","f","html-keyboard-response","26","2.1.0","46881","F=YES, J=NO","xxczzzz4ma","1","71","78","65","","","","","","lextale","true","false","","","","","","","",""
"795","
  <p style=""font-size: 40px;"">shumble</p>
  <p style=""font-size: 16px;"">F = YES &nbsp;&nbsp;&nbsp; J = NO</p>
","f","html-keyboard-response","27","2.1.0","47677","F=YES, J=NO","xxczzzz4ma","1","71","78","65","","","","","","lextale","false","false","","","","","","","",""
"626","
  <p style=""font-size: 40px;"">thirst</p>
  <p style=""font-size: 16px;"">F = YES &nbsp;&nbsp;&nbsp; J = NO</p>
","f","html-keyboard-response","28","2.1.0","48304","F=YES, J=NO","xxczzzz4ma","1","71","78","65","","","","","","lextale","true","false","","","","","","","",""
"2562","
  <p style=""font-size: 40px;"">unsail</p>
  <p style=""font-size: 16px;"">F = YES &nbsp;&nbsp;&nbsp; J = NO</p>
","f","html-keyboard-response","29","2.1.0","50867","F=YES, J=NO","xxczzzz4ma","1","71","78","65","","","","","","lextale","false","false","","","","","","","",""
"900","
  <p style=""font-size: 40px;"">rifle</p>
  <p style=""font-size: 16px;"">F = YES &nbsp;&nbsp;&nbsp; J = NO</p>
","f","html-keyboard-response","30","2.1.0","51767","F=YES, J=NO","xxczzzz4ma","1","71","78","65","","","","","","lextale","true","false","","","","","","","",""
"997","
  <p style=""font-size: 40px;"">mush</p>
  <p style=""font-size: 16px;"">F = YES &nbsp;&nbsp;&nbsp; J = NO</p>
","f","html-keyboard-response","31","2.1.0","52766","F=YES, J=NO","xxczzzz4ma","1","71","78","65","","","","","","lextale","false","false","","","","","","","",""
"862","
  <p style=""font-size: 40px;"">drench</p>
  <p style=""font-size: 16px;"">F = YES &nbsp;&nbsp;&nbsp; J = NO</p>
","f","html-keyboard-response","32","2.1.0","53628","F=YES, J=NO","xxczzzz4ma","1","71","78","65","","","","","","lextale","true","false","","","","","","","",""
"908","
  <p style=""font-size: 40px;"">snirt</p>
  <p style=""font-size: 16px;"">F = YES &nbsp;&nbsp;&nbsp; J = NO</p>
","j","html-keyboard-response","33","2.1.0","54538","F=YES, J=NO","xxczzzz4ma","1","71","78","65","","","","","","lextale","false","false","","","","","","","",""
"599","
  <p style=""font-size: 40px;"">bitter</p>
  <p style=""font-size: 16px;"">F = YES &nbsp;&nbsp;&nbsp; J = NO</p>
","f","html-keyboard-response","34","2.1.0","55138","F=YES, J=NO","xxczzzz4ma","1","71","78","65","","","","","","lextale","true","false","","","","","","","",""
"913","
  <p style=""font-size: 40px;"">pliff</p>
  <p style=""font-size: 16px;"">F = YES &nbsp;&nbsp;&nbsp; J = NO</p>
","j","html-keyboard-response","35","2.1.0","56052","F=YES, J=NO","xxczzzz4ma","1","71","78","65","","","","","","lextale","false","false","","","","","","","",""
"535","
  <p style=""font-size: 40px;"">tablet</p>
  <p style=""font-size: 16px;"">F = YES &nbsp;&nbsp;&nbsp; J = NO</p>
","f","html-keyboard-response","36","2.1.0","56588","F=YES, J=NO","xxczzzz4ma","1","71","78","65","","","","","","lextale","true","false","","","","","","","",""
"702","
  <p style=""font-size: 40px;"">glimmer</p>
  <p style=""font-size: 16px;"">F = YES &nbsp;&nbsp;&nbsp; J = NO</p>
","f","html-keyboard-response","37","2.1.0","57291","F=YES, J=NO","xxczzzz4ma","1","71","78","65","","","","","","lextale","true","false","","","","","","","",""
"1155","
  <p style=""font-size: 40px;"">slink</p>
  <p style=""font-size: 16px;"">F = YES &nbsp;&nbsp;&nbsp; J = NO</p>
","f","html-keyboard-response","38","2.1.0","58447","F=YES, J=NO","xxczzzz4ma","1","71","78","65","","","","","","lextale","true","false","","","","","","","",""
"488","
  <p style=""font-size: 40px;"">clever</p>
  <p style=""font-size: 16px;"">F = YES &nbsp;&nbsp;&nbsp; J = NO</p>
","f","html-keyboard-response","39","2.1.0","58937","F=YES, J=NO","xxczzzz4ma","1","71","78","65","","","","","","lextale","true","false","","","","","","","",""
"676","
  <p style=""font-size: 40px;"">grum</p>
  <p style=""font-size: 16px;"">F = YES &nbsp;&nbsp;&nbsp; J = NO</p>
","j","html-keyboard-response","40","2.1.0","59614","F=YES, J=NO","xxczzzz4ma","1","71","78","65","","","","","","lextale","false","false","","","","","","","",""
"655","
  <p style=""font-size: 40px;"">string</p>
  <p style=""font-size: 16px;"">F = YES &nbsp;&nbsp;&nbsp; J = NO</p>
","f","html-keyboard-response","41","2.1.0","60270","F=YES, J=NO","xxczzzz4ma","1","71","78","65","","","","","","lextale","true","false","","","","","","","",""
"1322","
  <p style=""font-size: 40px;"">plim</p>
  <p style=""font-size: 16px;"">F = YES &nbsp;&nbsp;&nbsp; J = NO</p>
","j","html-keyboard-response","42","2.1.0","61592","F=YES, J=NO","xxczzzz4ma","1","71","78","65","","","","","","lextale","false","false","","","","","","","",""
"573","
  <p style=""font-size: 40px;"">cable</p>
  <p style=""font-size: 16px;"">F = YES &nbsp;&nbsp;&nbsp; J = NO</p>
","f","html-keyboard-response","43","2.1.0","62167","F=YES, J=NO","xxczzzz4ma","1","71","78","65","","","","","","lextale","true","false","","","","","","","",""
"1206","
  <p style=""font-size: 40px;"">shrivel</p>
  <p style=""font-size: 16px;"">F = YES &nbsp;&nbsp;&nbsp; J = NO</p>
","f","html-keyboard-response","44","2.1.0","63374","F=YES, J=NO","xxczzzz4ma","1","71","78","65","","","","","","lextale","true","false","","","","","","","",""
"654","
  <p style=""font-size: 40px;"">tarnish</p>
  <p style=""font-size: 16px;"">F = YES &nbsp;&nbsp;&nbsp; J = NO</p>
","f","html-keyboard-response","45","2.1.0","64029","F=YES, J=NO","xxczzzz4ma","1","71","78","65","","","","","","lextale","true","false","","","","","","","",""
"779","
  <p style=""font-size: 40px;"">blim</p>
  <p style=""font-size: 16px;"">F = YES &nbsp;&nbsp;&nbsp; J = NO</p>
","j","html-keyboard-response","46","2.1.0","64808","F=YES, J=NO","xxczzzz4ma","1","71","78","65","","","","","","lextale","false","false","","","","","","","",""
"1005","
  <p style=""font-size: 40px;"">stifle</p>
  <p style=""font-size: 16px;"">F = YES &nbsp;&nbsp;&nbsp; J = NO</p>
","j","html-keyboard-response","47","2.1.0","65814","F=YES, J=NO","xxczzzz4ma","1","71","78","65","","","","","","lextale","true","false","","","","","","","",""
"868","
  <p style=""font-size: 40px;"">bint</p>
  <p style=""font-size: 16px;"">F = YES &nbsp;&nbsp;&nbsp; J = NO</p>
","j","html-keyboard-response","48","2.1.0","66683","F=YES, J=NO","xxczzzz4ma","1","71","78","65","","","","","","lextale","false","false","","","","","","","",""
"507","
  <p style=""font-size: 40px;"">purple</p>
  <p style=""font-size: 16px;"">F = YES &nbsp;&nbsp;&nbsp; J = NO</p>
","f","html-keyboard-response","49","2.1.0","67190","F=YES, J=NO","xxczzzz4ma","1","71","78","65","","","","","","lextale","true","false","","","","","","","",""
"705","
  <p style=""font-size: 40px;"">wriggle</p>
  <p style=""font-size: 16px;"">F = YES &nbsp;&nbsp;&nbsp; J = NO</p>
","f","html-keyboard-response","50","2.1.0","67896","F=YES, J=NO","xxczzzz4ma","1","71","78","65","","","","","","lextale","true","false","","","","","","","",""
"892","
  <p style=""font-size: 40px;"">mangle</p>
  <p style=""font-size: 16px;"">F = YES &nbsp;&nbsp;&nbsp; J = NO</p>
","f","html-keyboard-response","51","2.1.0","68789","F=YES, J=NO","xxczzzz4ma","1","71","78","65","","","","","","lextale","true","false","","","","","","","",""
"693","
  <p style=""font-size: 40px;"">shramp</p>
  <p style=""font-size: 16px;"">F = YES &nbsp;&nbsp;&nbsp; J = NO</p>
","f","html-keyboard-response","52","2.1.0","69483","F=YES, J=NO","xxczzzz4ma","1","71","78","65","","","","","","lextale","false","false","","","","","","","",""
"675","
  <p style=""font-size: 40px;"">flirt</p>
  <p style=""font-size: 16px;"">F = YES &nbsp;&nbsp;&nbsp; J = NO</p>
","f","html-keyboard-response","53","2.1.0","70158","F=YES, J=NO","xxczzzz4ma","1","71","78","65","","","","","","lextale","true","false","","","","","","","",""
"693","
  <p style=""font-size: 40px;"">frip</p>
  <p style=""font-size: 16px;"">F = YES &nbsp;&nbsp;&nbsp; J = NO</p>
","j","html-keyboard-response","54","2.1.0","70852","F=YES, J=NO","xxczzzz4ma","1","71","78","65","","","","","","lextale","false","false","","","","","","","",""
"705","
  <p style=""font-size: 40px;"">tangle</p>
  <p style=""font-size: 16px;"">F = YES &nbsp;&nbsp;&nbsp; J = NO</p>
","f","html-keyboard-response","55","2.1.0","71557","F=YES, J=NO","xxczzzz4ma","1","71","78","65","","","","","","lextale","true","false","","","","","","","",""
"814","
  <p style=""font-size: 40px;"">crumble</p>
  <p style=""font-size: 16px;"">F = YES &nbsp;&nbsp;&nbsp; J = NO</p>
","f","html-keyboard-response","56","2.1.0","72372","F=YES, J=NO","xxczzzz4ma","1","71","78","65","","","","","","lextale","true","false","","","","","","","",""
"767","
  <p style=""font-size: 40px;"">wrinkle</p>
  <p style=""font-size: 16px;"">F = YES &nbsp;&nbsp;&nbsp; J = NO</p>
","f","html-keyboard-response","57","2.1.0","73141","F=YES, J=NO","xxczzzz4ma","1","71","78","65","","","","","","lextale","true","false","","","","","","","",""
"716","
  <p style=""font-size: 40px;"">slumb</p>
  <p style=""font-size: 16px;"">F = YES &nbsp;&nbsp;&nbsp; J = NO</p>
","j","html-keyboard-response","58","2.1.0","73857","F=YES, J=NO","xxczzzz4ma","1","71","78","65","","","","","","lextale","false","false","","","","","","","",""
"657","
  <p style=""font-size: 40px;"">jungle</p>
  <p style=""font-size: 16px;"">F = YES &nbsp;&nbsp;&nbsp; J = NO</p>
","f","html-keyboard-response","59","2.1.0","74514","F=YES, J=NO","xxczzzz4ma","1","71","78","65","","","","","","lextale","true","false","","","","","","","",""
"602","
  <p style=""font-size: 40px;"">frolick</p>
  <p style=""font-size: 16px;"">F = YES &nbsp;&nbsp;&nbsp; J = NO</p>
","j","html-keyboard-response","60","2.1.0","75117","F=YES, J=NO","xxczzzz4ma","1","71","78","65","","","","","","lextale","false","false","","","","","","","",""
"2789","
      <h2>LexTALE Test Completed</h2>
      <p>Your LexTALE vocabulary score is: <strong>71%</strong></p>
      <p>Press any key to continue.</p>
    "," ","html-keyboard-response","61","2.1.0","77908","F=YES, J=NO","xxczzzz4ma","1","71","78","65","","","","","","","","","","","","","","","",""
"1670","
    <div style=""max-width: 800px; margin: auto; text-align: left;"">
      <h2>Break Time</h2>
      <p>You have completed the first part of the study.</p>
      <p>You may take a short <strong>30-second break</strong> before continuing.</p>
      <p>When you’re ready, press any key to continue to the final task.</p>
    </div>
  ","f","html-keyboard-response","62","2.1.0","79579","F=YES, J=NO","xxczzzz4ma","1","71","78","65","","","","","","","","","","","","","","","",""
"1008","
    <div style=""max-width: 800px; margin: auto; text-align: left;"">
      <h2>Part 2: Lexical Decision Task</h2>
      <p>You will now begin the second part of the study.</p>
      <p>Each trial will follow this sequence:</p>
      <ul>
        <li>A fixation cross (+) appears at the center of the screen.</li>
        <li>You will hear a short beep followed by a spoken word.</li>
        <li>A written word will appear briefly on the screen.</li>
      </ul>
      <p>Your task is to judge whether the <strong>written word</strong> is a real English word.</p>
      <p style=""margin-top: 1em;""><strong>Key responses:</strong></p>
      <ul>
        <li><strong>F</strong> = YES (real English word)</li>
        <li><strong>J</strong> = NO (not a real English word)</li>
      </ul>
      <p>Please respond as quickly and accurately as you can.</p>
      <p style=""margin-top: 2em;"">Press any key to continue.</p>
    </div>
  ","f","html-keyboard-response","63","2.1.0","80587","F=YES, J=NO","xxczzzz4ma","1","71","78","65","","","","","","","","","","","","","","","",""
"1802","
    <div style=""max-width: 800px; margin: auto; text-align: left;"">
      <h2>Before You Begin</h2>
      <p>Make sure your sound is turned on.</p>
      <p>You will hear audio during each trial, but your decision should be based only on the <strong>written word</strong> you see on the screen.</p>
      <p><strong>Reminder:</strong></p>
      <ul>
        <li><strong>F</strong> = YES (real English word)</li>
        <li><strong>J</strong> = NO (not a real English word)</li>
      </ul>
      <p style=""margin-top: 2em;"">Press any key when you are ready to begin.</p>
    </div>
  ","f","html-keyboard-response","64","2.1.0","82390","F=YES, J=NO","xxczzzz4ma","1","71","78","65","","","","","","","","","","","","","","","",""
"1045","
    <div style=""max-width: 800px; margin: auto; text-align: left;"">
      <h2>Part 2: Practice Trials</h2>
      <p>You will now complete a few <strong>practice trials</strong> to get familiar with the task.</p>
      <p>These trials are <strong>not scored</strong> and are only to help you get used to the format.</p>
      <p style=""margin-top: 2em;"">Press any key to begin.</p>
    </div>
  ","f","html-keyboard-response","65","2.1.0","83436","F=YES, J=NO","xxczzzz4ma","1","71","78","65","","","","","","","","","","","","","","","",""
"1512","<p>Starting practice block 1 of 2. Press any key to continue.</p>","f","html-keyboard-response","66","2.1.0","84949","F=YES, J=NO","xxczzzz4ma","1","71","78","65","","","","","","","","","","","","","","","",""
"null","<p style=""font-size: 50px;"">+</p>","null","html-keyboard-response","67","2.1.0","85253","F=YES, J=NO","xxczzzz4ma","1","71","78","65","","","","","","","","","","","","","","","",""
"null","audio/beep-329314.mp3","null","audio-keyboard-response","68","2.1.0","86816","F=YES, J=NO","xxczzzz4ma","1","71","78","65","","","","","","","","","","","","","","","",""
"null","audio/window1.wav","null","audio-keyboard-response","69","2.1.0","87402","F=YES, J=NO","xxczzzz4ma","1","71","78","65","","","","","","","","","","","","","","","",""
"960","
          <p id=""word"" style=""font-size: 40px;"">toss</p>
          <p style=""font-size: 16px;"">F = YES &nbsp;&nbsp;&nbsp; J = NO</p>
        ","j","html-keyboard-response","70","2.1.0","88363","F=YES, J=NO","xxczzzz4ma","1","71","78","65","","","","","","","","","toss","window1","filler","filler","f","false","",""
"null","<p style=""font-size: 50px;"">+</p>","null","html-keyboard-response","71","2.1.0","88671","F=YES, J=NO","xxczzzz4ma","1","71","78","65","","","","","","","","","","","","","","","",""
"null","audio/beep-329314.mp3","null","audio-keyboard-response","72","2.1.0","90213","F=YES, J=NO","xxczzzz4ma","1","71","78","65","","","","","","","","","","","","","","","",""
"null","audio/baby.wav","null","audio-keyboard-response","73","2.1.0","90703","F=YES, J=NO","xxczzzz4ma","1","71","78","65","","","","","","","","","","","","","","","",""
"591","
          <p id=""word"" style=""font-size: 40px;"">lift</p>
          <p style=""font-size: 16px;"">F = YES &nbsp;&nbsp;&nbsp; J = NO</p>
        ","j","html-keyboard-response","74","2.1.0","91294","F=YES, J=NO","xxczzzz4ma","1","71","78","65","","","","","","","","","lift","baby","filler","filler","f","false","",""
"null","<p style=""font-size: 50px;"">+</p>","null","html-keyboard-response","75","2.1.0","91602","F=YES, J=NO","xxczzzz4ma","1","71","78","65","","","","","","","","","","","","","","","",""
"null","audio/beep-329314.mp3","null","audio-keyboard-response","76","2.1.0","93133","F=YES, J=NO","xxczzzz4ma","1","71","78","65","","","","","","","","","","","","","","","",""
"null","audio/cancer1.wav","null","audio-keyboard-response","77","2.1.0","93683","F=YES, J=NO","xxczzzz4ma","1","71","78","65","","","","","","","","","","","","","","","",""
"545","
          <p id=""word"" style=""font-size: 40px;"">draw</p>
          <p style=""font-size: 16px;"">F = YES &nbsp;&nbsp;&nbsp; J = NO</p>
        ","j","html-keyboard-response","78","2.1.0","94228","F=YES, J=NO","xxczzzz4ma","1","71","78","65","","","","","","","","","draw","cancer1","filler","filler","f","false","",""
"null","<p style=""font-size: 50px;"">+</p>","null","html-keyboard-response","79","2.1.0","94534","F=YES, J=NO","xxczzzz4ma","1","71","78","65","","","","","","","","","","","","","","","",""
"null","audio/beep-329314.mp3","null","audio-keyboard-response","80","2.1.0","96072","F=YES, J=NO","xxczzzz4ma","1","71","78","65","","","","","","","","","","","","","","","",""
"null","audio/bottle.wav","null","audio-keyboard-response","81","2.1.0","96662","F=YES, J=NO","xxczzzz4ma","1","71","78","65","","","","","","","","","","","","","","","",""
"565","
          <p id=""word"" style=""font-size: 40px;"">watch</p>
          <p style=""font-size: 16px;"">F = YES &nbsp;&nbsp;&nbsp; J = NO</p>
        ","j","html-keyboard-response","82","2.1.0","97229","F=YES, J=NO","xxczzzz4ma","1","71","78","65","","","","","","","","","watch","bottle","filler","filler","f","false","",""
"null","<p style=""font-size: 50px;"">+</p>","null","html-keyboard-response","83","2.1.0","97539","F=YES, J=NO","xxczzzz4ma","1","71","78","65","","","","","","","","","","","","","","","",""
"null","audio/beep-329314.mp3","null","audio-keyboard-response","84","2.1.0","99072","F=YES, J=NO","xxczzzz4ma","1","71","78","65","","","","","","","","","","","","","","","",""
"null","audio/smirk1.wav","null","audio-keyboard-response","85","2.1.0","99963","F=YES, J=NO","xxczzzz4ma","1","71","78","65","","","","","","","","","","","","","","","",""
"623","
          <p id=""word"" style=""font-size: 40px;"">snopt</p>
          <p style=""font-size: 16px;"">F = YES &nbsp;&nbsp;&nbsp; J = NO</p>
        ","j","html-keyboard-response","86","2.1.0","100587","F=YES, J=NO","xxczzzz4ma","1","71","78","65","","","","","","","","","snopt","smirk1","pseudoword","pseudoword","j","true","",""
"null","<p style=""font-size: 50px;"">+</p>","null","html-keyboard-response","87","2.1.0","100902","F=YES, J=NO","xxczzzz4ma","1","71","78","65","","","","","","","","","","","","","","","",""
"null","audio/beep-329314.mp3","null","audio-keyboard-response","88","2.1.0","102432","F=YES, J=NO","xxczzzz4ma","1","71","78","65","","","","","","","","","","","","","","","",""
"null","audio/desire.wav","null","audio-keyboard-response","89","2.1.0","103082","F=YES, J=NO","xxczzzz4ma","1","71","78","65","","","","","","","","","","","","","","","",""
"469","
          <p id=""word"" style=""font-size: 40px;"">nophed</p>
          <p style=""font-size: 16px;"">F = YES &nbsp;&nbsp;&nbsp; J = NO</p>
        ","j","html-keyboard-response","90","2.1.0","103552","F=YES, J=NO","xxczzzz4ma","1","71","78","65","","","","","","","","","nophed","desire","pseudoword","pseudoword","j","true","",""
"null","<p style=""font-size: 50px;"">+</p>","null","html-keyboard-response","91","2.1.0","103868","F=YES, J=NO","xxczzzz4ma","1","71","78","65","","","","","","","","","","","","","","","",""
"null","audio/beep-329314.mp3","null","audio-keyboard-response","92","2.1.0","105393","F=YES, J=NO","xxczzzz4ma","1","71","78","65","","","","","","","","","","","","","","","",""
"null","audio/holiday1.wav","null","audio-keyboard-response","93","2.1.0","106042","F=YES, J=NO","xxczzzz4ma","1","71","78","65","","","","","","","","","","","","","","","",""
"561","
          <p id=""word"" style=""font-size: 40px;"">drivets</p>
          <p style=""font-size: 16px;"">F = YES &nbsp;&nbsp;&nbsp; J = NO</p>
        ","j","html-keyboard-response","94","2.1.0","106604","F=YES, J=NO","xxczzzz4ma","1","71","78","65","","","","","","","","","drivets","holiday1","pseudoword","pseudoword","j","true","",""
"null","<p style=""font-size: 50px;"">+</p>","null","html-keyboard-response","95","2.1.0","106920","F=YES, J=NO","xxczzzz4ma","1","71","78","65","","","","","","","","","","","","","","","",""
"null","audio/beep-329314.mp3","null","audio-keyboard-response","96","2.1.0","108452","F=YES, J=NO","xxczzzz4ma","1","71","78","65","","","","","","","","","","","","","","","",""
"null","audio/ankle1.wav","null","audio-keyboard-response","97","2.1.0","108982","F=YES, J=NO","xxczzzz4ma","1","71","78","65","","","","","","","","","","","","","","","",""
"497","
          <p id=""word"" style=""font-size: 40px;"">switm</p>
          <p style=""font-size: 16px;"">F = YES &nbsp;&nbsp;&nbsp; J = NO</p>
        ","j","html-keyboard-response","98","2.1.0","109481","F=YES, J=NO","xxczzzz4ma","1","71","78","65","","","","","","","","","switm","ankle1","pseudoword","pseudoword","j","true","",""
"null","<p style=""font-size: 50px;"">+</p>","null","html-keyboard-response","99","2.1.0","109789","F=YES, J=NO","xxczzzz4ma","1","71","78","65","","","","","","","","","","","","","","","",""
"null","audio/beep-329314.mp3","null","audio-keyboard-response","100","2.1.0","111312","F=YES, J=NO","xxczzzz4ma","1","71","78","65","","","","","","","","","","","","","","","",""
"null","audio/plot1.wav","null","audio-keyboard-response","101","2.1.0","111823","F=YES, J=NO","xxczzzz4ma","1","71","78","65","","","","","","","","","","","","","","","",""
"504","
          <p id=""word"" style=""font-size: 40px;"">glenter</p>
          <p style=""font-size: 16px;"">F = YES &nbsp;&nbsp;&nbsp; J = NO</p>
        ","j","html-keyboard-response","102","2.1.0","112328","F=YES, J=NO","xxczzzz4ma","1","71","78","65","","","","","","","","","glenter","plot1","pseudoword","pseudoword","j","true","",""
"null","<p style=""font-size: 50px;"">+</p>","null","html-keyboard-response","103","2.1.0","112643","F=YES, J=NO","xxczzzz4ma","1","71","78","65","","","","","","","","","","","","","","","",""
"null","audio/beep-329314.mp3","null","audio-keyboard-response","104","2.1.0","114173","F=YES, J=NO","xxczzzz4ma","1","71","78","65","","","","","","","","","","","","","","","",""
"null","audio/fence.wav","null","audio-keyboard-response","105","2.1.0","114842","F=YES, J=NO","xxczzzz4ma","1","71","78","65","","","","","","","","","","","","","","","",""
"400","
          <p id=""word"" style=""font-size: 40px;"">trim</p>
          <p style=""font-size: 16px;"">F = YES &nbsp;&nbsp;&nbsp; J = NO</p>
        ","j","html-keyboard-response","106","2.1.0","115244","F=YES, J=NO","xxczzzz4ma","1","71","78","65","","","","","","","","","trim","fence","filler","filler","f","false","",""
"null","<p style=""font-size: 50px;"">+</p>","null","html-keyboard-response","107","2.1.0","115545","F=YES, J=NO","xxczzzz4ma","1","71","78","65","","","","","","","","","","","","","","","",""
"null","audio/beep-329314.mp3","null","audio-keyboard-response","108","2.1.0","117073","F=YES, J=NO","xxczzzz4ma","1","71","78","65","","","","","","","","","","","","","","","",""
"null","audio/pattern.wav","null","audio-keyboard-response","109","2.1.0","117603","F=YES, J=NO","xxczzzz4ma","1","71","78","65","","","","","","","","","","","","","","","",""
"431","
          <p id=""word"" style=""font-size: 40px;"">tug</p>
          <p style=""font-size: 16px;"">F = YES &nbsp;&nbsp;&nbsp; J = NO</p>
        ","j","html-keyboard-response","110","2.1.0","118035","F=YES, J=NO","xxczzzz4ma","1","71","78","65","","","","","","","","","tug","pattern","filler","filler","f","false","",""
"null","<p style=""font-size: 50px;"">+</p>","null","html-keyboard-response","111","2.1.0","118336","F=YES, J=NO","xxczzzz4ma","1","71","78","65","","","","","","","","","","","","","","","",""
"null","audio/beep-329314.mp3","null","audio-keyboard-response","112","2.1.0","119873","F=YES, J=NO","xxczzzz4ma","1","71","78","65","","","","","","","","","","","","","","","",""
"null","audio/belief.wav","null","audio-keyboard-response","113","2.1.0","120523","F=YES, J=NO","xxczzzz4ma","1","71","78","65","","","","","","","","","","","","","","","",""
"423","
          <p id=""word"" style=""font-size: 40px;"">read</p>
          <p style=""font-size: 16px;"">F = YES &nbsp;&nbsp;&nbsp; J = NO</p>
        ","j","html-keyboard-response","114","2.1.0","120947","F=YES, J=NO","xxczzzz4ma","1","71","78","65","","","","","","","","","read","belief","filler","filler","f","false","",""
"1329","<p>Starting practice block 2 of 2. Press any key to continue.</p>","f","html-keyboard-response","115","2.1.0","122277","F=YES, J=NO","xxczzzz4ma","1","71","78","65","","","","","","","","","","","","","","","",""
"null","<p style=""font-size: 50px;"">+</p>","null","html-keyboard-response","116","2.1.0","122584","F=YES, J=NO","xxczzzz4ma","1","71","78","65","","","","","","","","","","","","","","","",""
"null","audio/beep-329314.mp3","null","audio-keyboard-response","117","2.1.0","124112","F=YES, J=NO","xxczzzz4ma","1","71","78","65","","","","","","","","","","","","","","","",""
"null","audio/alarm1.wav","null","audio-keyboard-response","118","2.1.0","124702","F=YES, J=NO","xxczzzz4ma","1","71","78","65","","","","","","","","","","","","","","","",""
"453","
          <p id=""word"" style=""font-size: 40px;"">lock</p>
          <p style=""font-size: 16px;"">F = YES &nbsp;&nbsp;&nbsp; J = NO</p>
        ","j","html-keyboard-response","119","2.1.0","125157","F=YES, J=NO","xxczzzz4ma","1","71","78","65","","","","","","","","","lock","alarm1","filler","filler","f","false","",""
"null","<p style=""font-size: 50px;"">+</p>","null","html-keyboard-response","120","2.1.0","125460","F=YES, J=NO","xxczzzz4ma","1","71","78","65","","","","","","","","","","","","","","","",""
"null","audio/beep-329314.mp3","null","audio-keyboard-response","121","2.1.0","126993","F=YES, J=NO","xxczzzz4ma","1","71","78","65","","","","","","","","","","","","","","","",""
"null","audio/weight1.wav","null","audio-keyboard-response","122","2.1.0","127542","F=YES, J=NO","xxczzzz4ma","1","71","78","65","","","","","","","","","","","","","","","",""
"485","
          <p id=""word"" style=""font-size: 40px;"">crimsh</p>
          <p style=""font-size: 16px;"">F = YES &nbsp;&nbsp;&nbsp; J = NO</p>
        ","j","html-keyboard-response","123","2.1.0","128029","F=YES, J=NO","xxczzzz4ma","1","71","78","65","","","","","","","","","crimsh","weight1","pseudoword","pseudoword","j","true","",""
"null","<p style=""font-size: 50px;"">+</p>","null","html-keyboard-response","124","2.1.0","128336","F=YES, J=NO","xxczzzz4ma","1","71","78","65","","","","","","","","","","","","","","","",""
"null","audio/beep-329314.mp3","null","audio-keyboard-response","125","2.1.0","129873","F=YES, J=NO","xxczzzz4ma","1","71","78","65","","","","","","","","","","","","","","","",""
"null","audio/topic.wav","null","audio-keyboard-response","126","2.1.0","130463","F=YES, J=NO","xxczzzz4ma","1","71","78","65","","","","","","","","","","","","","","","",""
"453","
          <p id=""word"" style=""font-size: 40px;"">infortuitist</p>
          <p style=""font-size: 16px;"">F = YES &nbsp;&nbsp;&nbsp; J = NO</p>
        ","j","html-keyboard-response","127","2.1.0","130917","F=YES, J=NO","xxczzzz4ma","1","71","78","65","","","","","","","","","infortuitist","topic","pseudoword","pseudoword","j","true","",""
"null","<p style=""font-size: 50px;"">+</p>","null","html-keyboard-response","128","2.1.0","131224","F=YES, J=NO","xxczzzz4ma","1","71","78","65","","","","","","","","","","","","","","","",""
"null","audio/beep-329314.mp3","null","audio-keyboard-response","129","2.1.0","132752","F=YES, J=NO","xxczzzz4ma","1","71","78","65","","","","","","","","","","","","","","","",""
"null","audio/emotion.wav","null","audio-keyboard-response","130","2.1.0","133423","F=YES, J=NO","xxczzzz4ma","1","71","78","65","","","","","","","","","","","","","","","",""
"423","
          <p id=""word"" style=""font-size: 40px;"">devering</p>
          <p style=""font-size: 16px;"">F = YES &nbsp;&nbsp;&nbsp; J = NO</p>
        ","j","html-keyboard-response","131","2.1.0","133847","F=YES, J=NO","xxczzzz4ma","1","71","78","65","","","","","","","","","devering","emotion","pseudoword","pseudoword","j","true","",""
"null","<p style=""font-size: 50px;"">+</p>","null","html-keyboard-response","132","2.1.0","134161","F=YES, J=NO","xxczzzz4ma","1","71","78","65","","","","","","","","","","","","","","","",""
"null","audio/beep-329314.mp3","null","audio-keyboard-response","133","2.1.0","135693","F=YES, J=NO","xxczzzz4ma","1","71","78","65","","","","","","","","","","","","","","","",""
"null","audio/haste1.wav","null","audio-keyboard-response","134","2.1.0","136263","F=YES, J=NO","xxczzzz4ma","1","71","78","65","","","","","","","","","","","","","","","",""
"449","
          <p id=""word"" style=""font-size: 40px;"">coraconate</p>
          <p style=""font-size: 16px;"">F = YES &nbsp;&nbsp;&nbsp; J = NO</p>
        ","j","html-keyboard-response","135","2.1.0","136712","F=YES, J=NO","xxczzzz4ma","1","71","78","65","","","","","","","","","coraconate","haste1","pseudoword","pseudoword","j","true","",""
"null","<p style=""font-size: 50px;"">+</p>","null","html-keyboard-response","136","2.1.0","137027","F=YES, J=NO","xxczzzz4ma","1","71","78","65","","","","","","","","","","","","","","","",""
"null","audio/beep-329314.mp3","null","audio-keyboard-response","137","2.1.0","138553","F=YES, J=NO","xxczzzz4ma","1","71","78","65","","","","","","","","","","","","","","","",""
"null","audio/camera1.wav","null","audio-keyboard-response","138","2.1.0","139042","F=YES, J=NO","xxczzzz4ma","1","71","78","65","","","","","","","","","","","","","","","",""
"460","
          <p id=""word"" style=""font-size: 40px;"">stir</p>
          <p style=""font-size: 16px;"">F = YES &nbsp;&nbsp;&nbsp; J = NO</p>
        ","j","html-keyboard-response","139","2.1.0","139503","F=YES, J=NO","xxczzzz4ma","1","71","78","65","","","","","","","","","stir","camera1","filler","filler","f","false","",""
"null","<p style=""font-size: 50px;"">+</p>","null","html-keyboard-response","140","2.1.0","139812","F=YES, J=NO","xxczzzz4ma","1","71","78","65","","","","","","","","","","","","","","","",""
"null","audio/beep-329314.mp3","null","audio-keyboard-response","141","2.1.0","141353","F=YES, J=NO","xxczzzz4ma","1","71","78","65","","","","","","","","","","","","","","","",""
"null","audio/kettle1.wav","null","audio-keyboard-response","142","2.1.0","141843","F=YES, J=NO","xxczzzz4ma","1","71","78","65","","","","","","","","","","","","","","","",""
"591","
          <p id=""word"" style=""font-size: 40px;"">wrap</p>
          <p style=""font-size: 16px;"">F = YES &nbsp;&nbsp;&nbsp; J = NO</p>
        ","j","html-keyboard-response","143","2.1.0","142435","F=YES, J=NO","xxczzzz4ma","1","71","78","65","","","","","","","","","wrap","kettle1","filler","filler","f","false","",""
"null","<p style=""font-size: 50px;"">+</p>","null","html-keyboard-response","144","2.1.0","142742","F=YES, J=NO","xxczzzz4ma","1","71","78","65","","","","","","","","","","","","","","","",""
"null","audio/beep-329314.mp3","null","audio-keyboard-response","145","2.1.0","144273","F=YES, J=NO","xxczzzz4ma","1","71","78","65","","","","","","","","","","","","","","","",""
"null","audio/strength.wav","null","audio-keyboard-response","146","2.1.0","145023","F=YES, J=NO","xxczzzz4ma","1","71","78","65","","","","","","","","","","","","","","","",""
"497","
          <p id=""word"" style=""font-size: 40px;"">plabet</p>
          <p style=""font-size: 16px;"">F = YES &nbsp;&nbsp;&nbsp; J = NO</p>
        ","j","html-keyboard-response","147","2.1.0","145521","F=YES, J=NO","xxczzzz4ma","1","71","78","65","","","","","","","","","plabet","strength","pseudoword","pseudoword","j","true","",""
"null","<p style=""font-size: 50px;"">+</p>","null","html-keyboard-response","148","2.1.0","145830","F=YES, J=NO","xxczzzz4ma","1","71","78","65","","","","","","","","","","","","","","","",""
"null","audio/beep-329314.mp3","null","audio-keyboard-response","149","2.1.0","147353","F=YES, J=NO","xxczzzz4ma","1","71","78","65","","","","","","","","","","","","","","","",""
"null","audio/alarm1.wav","null","audio-keyboard-response","150","2.1.0","147923","F=YES, J=NO","xxczzzz4ma","1","71","78","65","","","","","","","","","","","","","","","",""
"799","
          <p id=""word"" style=""font-size: 40px;"">swetp</p>
          <p style=""font-size: 16px;"">F = YES &nbsp;&nbsp;&nbsp; J = NO</p>
        ","j","html-keyboard-response","151","2.1.0","148723","F=YES, J=NO","xxczzzz4ma","1","71","78","65","","","","","","","","","swetp","alarm1","pseudoword","pseudoword","j","true","",""
"null","<p style=""font-size: 50px;"">+</p>","null","html-keyboard-response","152","2.1.0","149028","F=YES, J=NO","xxczzzz4ma","1","71","78","65","","","","","","","","","","","","","","","",""
"null","audio/beep-329314.mp3","null","audio-keyboard-response","153","2.1.0","150553","F=YES, J=NO","xxczzzz4ma","1","71","78","65","","","","","","","","","","","","","","","",""
"null","audio/planet1.wav","null","audio-keyboard-response","154","2.1.0","151163","F=YES, J=NO","xxczzzz4ma","1","71","78","65","","","","","","","","","","","","","","","",""
"427","
          <p id=""word"" style=""font-size: 40px;"">cratched</p>
          <p style=""font-size: 16px;"">F = YES &nbsp;&nbsp;&nbsp; J = NO</p>
        ","j","html-keyboard-response","155","2.1.0","151591","F=YES, J=NO","xxczzzz4ma","1","71","78","65","","","","","","","","","cratched","planet1","pseudoword","pseudoword","j","true","",""
"null","<p style=""font-size: 50px;"">+</p>","null","html-keyboard-response","156","2.1.0","151894","F=YES, J=NO","xxczzzz4ma","1","71","78","65","","","","","","","","","","","","","","","",""
"null","audio/beep-329314.mp3","null","audio-keyboard-response","157","2.1.0","153433","F=YES, J=NO","xxczzzz4ma","1","71","78","65","","","","","","","","","","","","","","","",""
"null","audio/brain.wav","null","audio-keyboard-response","158","2.1.0","154062","F=YES, J=NO","xxczzzz4ma","1","71","78","65","","","","","","","","","","","","","","","",""
"372","
          <p id=""word"" style=""font-size: 40px;"">throw</p>
          <p style=""font-size: 16px;"">F = YES &nbsp;&nbsp;&nbsp; J = NO</p>
        ","j","html-keyboard-response","159","2.1.0","154436","F=YES, J=NO","xxczzzz4ma","1","71","78","65","","","","","","","","","throw","brain","filler","filler","f","false","",""
"null","<p style=""font-size: 50px;"">+</p>","null","html-keyboard-response","160","2.1.0","154745","F=YES, J=NO","xxczzzz4ma","1","71","78","65","","","","","","","","","","","","","","","",""
"null","audio/beep-329314.mp3","null","audio-keyboard-response","161","2.1.0","156273","F=YES, J=NO","xxczzzz4ma","1","71","78","65","","","","","","","","","","","","","","","",""
"null","audio/breath.wav","null","audio-keyboard-response","162","2.1.0","156962","F=YES, J=NO","xxczzzz4ma","1","71","78","65","","","","","","","","","","","","","","","",""
"489","
          <p id=""word"" style=""font-size: 40px;"">pack</p>
          <p style=""font-size: 16px;"">F = YES &nbsp;&nbsp;&nbsp; J = NO</p>
        ","j","html-keyboard-response","163","2.1.0","157452","F=YES, J=NO","xxczzzz4ma","1","71","78","65","","","","","","","","","pack","breath","filler","filler","f","false","",""
"5608","
    <div style=""max-width: 800px; margin: auto; text-align: left;"">
      <h2>Part 2: Main Trials</h2>
      <p>Great job on the practice trials!</p>
      <p>You will now begin the <strong>main set of trials</strong>.</p>
      <p>Remember your key assignments:</p>
      <ul>
        <li><strong>F</strong> = YES (real English word)</li>
        <li><strong>J</strong> = NO (not a real English word)</li>
      </ul>
      <p>Try to respond as <strong>quickly and accurately</strong> as possible.</p>
      <p style=""margin-top: 2em;"">Press any key to begin the main trials.</p>
    </div>
  ","f","html-keyboard-response","164","2.1.0","163062","F=YES, J=NO","xxczzzz4ma","1","71","78","65","","","","","","","","","","","","","","","",""
"6136","<p>Starting main block 1 of 8. Press any key to continue.</p>","f","html-keyboard-response","165","2.1.0","169198","F=YES, J=NO","xxczzzz4ma","1","71","78","65","","","","","","","","","","","","","","","",""
"null","<p style=""font-size: 50px;"">+</p>","null","html-keyboard-response","166","2.1.0","169510","F=YES, J=NO","xxczzzz4ma","1","71","78","65","","","","","","","","","","","","","","","",""
"null","audio/beep-329314.mp3","null","audio-keyboard-response","167","2.1.0","171037","F=YES, J=NO","xxczzzz4ma","1","71","78","65","","","","","","","","","","","","","","","",""
"null","audio/smirk1.wav","null","audio-keyboard-response","168","2.1.0","171727","F=YES, J=NO","xxczzzz4ma","1","71","78","65","","","","","","","","","","","","","","","",""
"838","
          <p id=""word"" style=""font-size: 40px;"">wipe</p>
          <p style=""font-size: 16px;"">F = YES &nbsp;&nbsp;&nbsp; J = NO</p>
        ","j","html-keyboard-response","169","2.1.0","172442","F=YES, J=NO","xxczzzz4ma","1","71","78","65","","","","","","","","","wipe","smirk1","metaphor","experimental","f","false","",""
"null","<p style=""font-size: 50px;"">+</p>","null","html-keyboard-response","170","2.1.0","172758","F=YES, J=NO","xxczzzz4ma","1","71","78","65","","","","","","","","","","","","","","","",""
"null","audio/beep-329314.mp3","null","audio-keyboard-response","171","2.1.0","174293","F=YES, J=NO","xxczzzz4ma","1","71","78","65","","","","","","","","","","","","","","","",""
"null","audio/terrain.wav","null","audio-keyboard-response","172","2.1.0","175003","F=YES, J=NO","xxczzzz4ma","1","71","78","65","","","","","","","","","","","","","","","",""
"1385","
          <p id=""word"" style=""font-size: 40px;"">navigate</p>
          <p style=""font-size: 16px;"">F = YES &nbsp;&nbsp;&nbsp; J = NO</p>
        ","f","html-keyboard-response","173","2.1.0","176390","F=YES, J=NO","xxczzzz4ma","1","71","78","65","","","","","","","","","navigate","terrain","literal","experimental","f","true","",""
"null","<p style=""font-size: 50px;"">+</p>","null","html-keyboard-response","174","2.1.0","176705","F=YES, J=NO","xxczzzz4ma","1","71","78","65","","","","","","","","","","","","","","","",""
"null","audio/beep-329314.mp3","null","audio-keyboard-response","175","2.1.0","178234","F=YES, J=NO","xxczzzz4ma","1","71","78","65","","","","","","","","","","","","","","","",""
"null","audio/cash1.wav","null","audio-keyboard-response","176","2.1.0","178924","F=YES, J=NO","xxczzzz4ma","1","71","78","65","","","","","","","","","","","","","","","",""
"530","
          <p id=""word"" style=""font-size: 40px;"">splear</p>
          <p style=""font-size: 16px;"">F = YES &nbsp;&nbsp;&nbsp; J = NO</p>
        ","j","html-keyboard-response","177","2.1.0","179455","F=YES, J=NO","xxczzzz4ma","1","71","78","65","","","","","","","","","splear","cash1","pseudoword","pseudoword","j","true","",""
"null","<p style=""font-size: 50px;"">+</p>","null","html-keyboard-response","178","2.1.0","179771","F=YES, J=NO","xxczzzz4ma","1","71","78","65","","","","","","","","","","","","","","","",""
"null","audio/beep-329314.mp3","null","audio-keyboard-response","179","2.1.0","181294","F=YES, J=NO","xxczzzz4ma","1","71","78","65","","","","","","","","","","","","","","","",""
"null","audio/news.wav","null","audio-keyboard-response","180","2.1.0","181943","F=YES, J=NO","xxczzzz4ma","1","71","78","65","","","","","","","","","","","","","","","",""
"826","
          <p id=""word"" style=""font-size: 40px;"">digest</p>
          <p style=""font-size: 16px;"">F = YES &nbsp;&nbsp;&nbsp; J = NO</p>
        ","j","html-keyboard-response","181","2.1.0","182770","F=YES, J=NO","xxczzzz4ma","1","71","78","65","","","","","","","","","digest","news","metaphor","experimental","f","false","",""
"null","<p style=""font-size: 50px;"">+</p>","null","html-keyboard-response","182","2.1.0","183087","F=YES, J=NO","xxczzzz4ma","1","71","78","65","","","","","","","","","","","","","","","",""
"null","audio/beep-329314.mp3","null","audio-keyboard-response","183","2.1.0","184614","F=YES, J=NO","xxczzzz4ma","1","71","78","65","","","","","","","","","","","","","","","",""
"null","audio/pain1.wav","null","audio-keyboard-response","184","2.1.0","185064","F=YES, J=NO","xxczzzz4ma","1","71","78","65","","","","","","","","","","","","","","","",""
"729","
          <p id=""word"" style=""font-size: 40px;"">tritted</p>
          <p style=""font-size: 16px;"">F = YES &nbsp;&nbsp;&nbsp; J = NO</p>
        ","j","html-keyboard-response","185","2.1.0","185793","F=YES, J=NO","xxczzzz4ma","1","71","78","65","","","","","","","","","tritted","pain1","pseudoword","pseudoword","j","true","",""
"null","<p style=""font-size: 50px;"">+</p>","null","html-keyboard-response","186","2.1.0","186101","F=YES, J=NO","xxczzzz4ma","1","71","78","65","","","","","","","","","","","","","","","",""
"null","audio/beep-329314.mp3","null","audio-keyboard-response","187","2.1.0","187635","F=YES, J=NO","xxczzzz4ma","1","71","78","65","","","","","","","","","","","","","","","",""
"null","audio/breath.wav","null","audio-keyboard-response","188","2.1.0","188184","F=YES, J=NO","xxczzzz4ma","1","71","78","65","","","","","","","","","","","","","","","",""
"924","
          <p id=""word"" style=""font-size: 40px;"">twets</p>
          <p style=""font-size: 16px;"">F = YES &nbsp;&nbsp;&nbsp; J = NO</p>
        ","j","html-keyboard-response","189","2.1.0","189109","F=YES, J=NO","xxczzzz4ma","1","71","78","65","","","","","","","","","twets","breath","pseudoword","pseudoword","j","true","",""
"null","<p style=""font-size: 50px;"">+</p>","null","html-keyboard-response","190","2.1.0","189421","F=YES, J=NO","xxczzzz4ma","1","71","78","65","","","","","","","","","","","","","","","",""
"null","audio/beep-329314.mp3","null","audio-keyboard-response","191","2.1.0","190954","F=YES, J=NO","xxczzzz4ma","1","71","78","65","","","","","","","","","","","","","","","",""
"null","audio/road.wav","null","audio-keyboard-response","192","2.1.0","191384","F=YES, J=NO","xxczzzz4ma","1","71","78","65","","","","","","","","","","","","","","","",""
"734","
          <p id=""word"" style=""font-size: 40px;"">wappings</p>
          <p style=""font-size: 16px;"">F = YES &nbsp;&nbsp;&nbsp; J = NO</p>
        ","j","html-keyboard-response","193","2.1.0","192120","F=YES, J=NO","xxczzzz4ma","1","71","78","65","","","","","","","","","wappings","road","pseudoword","pseudoword","j","true","",""
"null","<p style=""font-size: 50px;"">+</p>","null","html-keyboard-response","194","2.1.0","192423","F=YES, J=NO","xxczzzz4ma","1","71","78","65","","","","","","","","","","","","","","","",""
"null","audio/beep-329314.mp3","null","audio-keyboard-response","195","2.1.0","193953","F=YES, J=NO","xxczzzz4ma","1","71","78","65","","","","","","","","","","","","","","","",""
"null","audio/truth1.wav","null","audio-keyboard-response","196","2.1.0","194624","F=YES, J=NO","xxczzzz4ma","1","71","78","65","","","","","","","","","","","","","","","",""
"724","
          <p id=""word"" style=""font-size: 40px;"">calitom</p>
          <p style=""font-size: 16px;"">F = YES &nbsp;&nbsp;&nbsp; J = NO</p>
        ","j","html-keyboard-response","197","2.1.0","195349","F=YES, J=NO","xxczzzz4ma","1","71","78","65","","","","","","","","","calitom","truth1","pseudoword","pseudoword","j","true","",""
"null","<p style=""font-size: 50px;"">+</p>","null","html-keyboard-response","198","2.1.0","195654","F=YES, J=NO","xxczzzz4ma","1","71","78","65","","","","","","","","","","","","","","","",""
"null","audio/beep-329314.mp3","null","audio-keyboard-response","199","2.1.0","197194","F=YES, J=NO","xxczzzz4ma","1","71","78","65","","","","","","","","","","","","","","","",""
"null","audio/relief.wav","null","audio-keyboard-response","200","2.1.0","197864","F=YES, J=NO","xxczzzz4ma","1","71","78","65","","","","","","","","","","","","","","","",""
"623","
          <p id=""word"" style=""font-size: 40px;"">grigg</p>
          <p style=""font-size: 16px;"">F = YES &nbsp;&nbsp;&nbsp; J = NO</p>
        ","j","html-keyboard-response","201","2.1.0","198488","F=YES, J=NO","xxczzzz4ma","1","71","78","65","","","","","","","","","grigg","relief","pseudoword","pseudoword","j","true","",""
"null","<p style=""font-size: 50px;"">+</p>","null","html-keyboard-response","202","2.1.0","198790","F=YES, J=NO","xxczzzz4ma","1","71","78","65","","","","","","","","","","","","","","","",""
"null","audio/beep-329314.mp3","null","audio-keyboard-response","203","2.1.0","200314","F=YES, J=NO","xxczzzz4ma","1","71","78","65","","","","","","","","","","","","","","","",""
"null","audio/window1.wav","null","audio-keyboard-response","204","2.1.0","200904","F=YES, J=NO","xxczzzz4ma","1","71","78","65","","","","","","","","","","","","","","","",""
"685","
          <p id=""word"" style=""font-size: 40px;"">break</p>
          <p style=""font-size: 16px;"">F = YES &nbsp;&nbsp;&nbsp; J = NO</p>
        ","f","html-keyboard-response","205","2.1.0","201590","F=YES, J=NO","xxczzzz4ma","1","71","78","65","","","","","","","","","break","window1","literal","experimental","f","true","",""
"null","<p style=""font-size: 50px;"">+</p>","null","html-keyboard-response","206","2.1.0","201903","F=YES, J=NO","xxczzzz4ma","1","71","78","65","","","","","","","","","","","","","","","",""
"null","audio/beep-329314.mp3","null","audio-keyboard-response","207","2.1.0","203433","F=YES, J=NO","xxczzzz4ma","1","71","78","65","","","","","","","","","","","","","","","",""
"null","audio/arm.wav","null","audio-keyboard-response","208","2.1.0","204104","F=YES, J=NO","xxczzzz4ma","1","71","78","65","","","","","","","","","","","","","","","",""
"1116","
          <p id=""word"" style=""font-size: 40px;"">fold</p>
          <p style=""font-size: 16px;"">F = YES &nbsp;&nbsp;&nbsp; J = NO</p>
        ","f","html-keyboard-response","209","2.1.0","205220","F=YES, J=NO","xxczzzz4ma","1","71","78","65","","","","","","","","","fold","arm","filler","filler","f","true","",""
"null","<p style=""font-size: 50px;"">+</p>","null","html-keyboard-response","210","2.1.0","205523","F=YES, J=NO","xxczzzz4ma","1","71","78","65","","","","","","","","","","","","","","","",""
"null","audio/beep-329314.mp3","null","audio-keyboard-response","211","2.1.0","207054","F=YES, J=NO","xxczzzz4ma","1","71","78","65","","","","","","","","","","","","","","","",""
"null","audio/uncle1.wav","null","audio-keyboard-response","212","2.1.0","207543","F=YES, J=NO","xxczzzz4ma","1","71","78","65","","","","","","","","","","","","","","","",""
"876","
          <p id=""word"" style=""font-size: 40px;"">dramble</p>
          <p style=""font-size: 16px;"">F = YES &nbsp;&nbsp;&nbsp; J = NO</p>
        ","j","html-keyboard-response","213","2.1.0","208421","F=YES, J=NO","xxczzzz4ma","1","71","78","65","","","","","","","","","dramble","uncle1","pseudoword","pseudoword","j","true","",""
"null","<p style=""font-size: 50px;"">+</p>","null","html-keyboard-response","214","2.1.0","208738","F=YES, J=NO","xxczzzz4ma","1","71","78","65","","","","","","","","","","","","","","","",""
"null","audio/beep-329314.mp3","null","audio-keyboard-response","215","2.1.0","210274","F=YES, J=NO","xxczzzz4ma","1","71","78","65","","","","","","","","","","","","","","","",""
"null","audio/handle.wav","null","audio-keyboard-response","216","2.1.0","210904","F=YES, J=NO","xxczzzz4ma","1","71","78","65","","","","","","","","","","","","","","","",""
"745","
          <p id=""word"" style=""font-size: 40px;"">moutes</p>
          <p style=""font-size: 16px;"">F = YES &nbsp;&nbsp;&nbsp; J = NO</p>
        ","j","html-keyboard-response","217","2.1.0","211650","F=YES, J=NO","xxczzzz4ma","1","71","78","65","","","","","","","","","moutes","handle","pseudoword","pseudoword","j","true","",""
"null","<p style=""font-size: 50px;"">+</p>","null","html-keyboard-response","218","2.1.0","211956","F=YES, J=NO","xxczzzz4ma","1","71","78","65","","","","","","","","","","","","","","","",""
"null","audio/beep-329314.mp3","null","audio-keyboard-response","219","2.1.0","213493","F=YES, J=NO","xxczzzz4ma","1","71","78","65","","","","","","","","","","","","","","","",""
"null","audio/gold1.wav","null","audio-keyboard-response","220","2.1.0","214044","F=YES, J=NO","xxczzzz4ma","1","71","78","65","","","","","","","","","","","","","","","",""
"818","
          <p id=""word"" style=""font-size: 40px;"">sell</p>
          <p style=""font-size: 16px;"">F = YES &nbsp;&nbsp;&nbsp; J = NO</p>
        ","f","html-keyboard-response","221","2.1.0","214863","F=YES, J=NO","xxczzzz4ma","1","71","78","65","","","","","","","","","sell","gold1","literal","experimental","f","true","",""
"null","<p style=""font-size: 50px;"">+</p>","null","html-keyboard-response","222","2.1.0","215165","F=YES, J=NO","xxczzzz4ma","1","71","78","65","","","","","","","","","","","","","","","",""
"null","audio/beep-329314.mp3","null","audio-keyboard-response","223","2.1.0","216694","F=YES, J=NO","xxczzzz4ma","1","71","78","65","","","","","","","","","","","","","","","",""
"null","audio/revenue1.wav","null","audio-keyboard-response","224","2.1.0","217364","F=YES, J=NO","xxczzzz4ma","1","71","78","65","","","","","","","","","","","","","","","",""
"1438","
          <p id=""word"" style=""font-size: 40px;"">grow</p>
          <p style=""font-size: 16px;"">F = YES &nbsp;&nbsp;&nbsp; J = NO</p>
        ","f","html-keyboard-response","225","2.1.0","218803","F=YES, J=NO","xxczzzz4ma","1","71","78","65","","","","","","","","","grow","revenue1","metaphor","experimental","f","true","",""
"null","<p style=""font-size: 50px;"">+</p>","null","html-keyboard-response","226","2.1.0","219118","F=YES, J=NO","xxczzzz4ma","1","71","78","65","","","","","","","","","","","","","","","",""
"null","audio/beep-329314.mp3","null","audio-keyboard-response","227","2.1.0","220654","F=YES, J=NO","xxczzzz4ma","1","71","78","65","","","","","","","","","","","","","","","",""
"null","audio/cloud1.wav","null","audio-keyboard-response","228","2.1.0","221204","F=YES, J=NO","xxczzzz4ma","1","71","78","65","","","","","","","","","","","","","","","",""
"615","
          <p id=""word"" style=""font-size: 40px;"">brotant</p>
          <p style=""font-size: 16px;"">F = YES &nbsp;&nbsp;&nbsp; J = NO</p>
        ","j","html-keyboard-response","229","2.1.0","221820","F=YES, J=NO","xxczzzz4ma","1","71","78","65","","","","","","","","","brotant","cloud1","pseudoword","pseudoword","j","true","",""
"1500","<p>Excellent! You have finished block 1 of 8.</p>
                     <p>Feel free to take a 30 second break.</p>
                     <p>Press any key when you're ready to continue.</p>","f","html-keyboard-response","230","2.1.0","223321","F=YES, J=NO","xxczzzz4ma","1","71","78","65","","","","","","","","","","","","","","","",""
"2661","<p>Starting main block 2 of 8. Press any key to continue.</p>","f","html-keyboard-response","231","2.1.0","225982","F=YES, J=NO","xxczzzz4ma","1","71","78","65","","","","","","","","","","","","","","","",""
"null","<p style=""font-size: 50px;"">+</p>","null","html-keyboard-response","232","2.1.0","226290","F=YES, J=NO","xxczzzz4ma","1","71","78","65","","","","","","","","","","","","","","","",""
"null","audio/beep-329314.mp3","null","audio-keyboard-response","233","2.1.0","227814","F=YES, J=NO","xxczzzz4ma","1","71","78","65","","","","","","","","","","","","","","","",""
"null","audio/sand.wav","null","audio-keyboard-response","234","2.1.0","228464","F=YES, J=NO","xxczzzz4ma","1","71","78","65","","","","","","","","","","","","","","","",""
"713","
          <p id=""word"" style=""font-size: 40px;"">possess</p>
          <p style=""font-size: 16px;"">F = YES &nbsp;&nbsp;&nbsp; J = NO</p>
        ","j","html-keyboard-response","235","2.1.0","229178","F=YES, J=NO","xxczzzz4ma","1","71","78","65","","","","","","","","","possess","sand","unrelated","experimental","f","false","",""
"null","<p style=""font-size: 50px;"">+</p>","null","html-keyboard-response","236","2.1.0","229488","F=YES, J=NO","xxczzzz4ma","1","71","78","65","","","","","","","","","","","","","","","",""
"null","audio/beep-329314.mp3","null","audio-keyboard-response","237","2.1.0","231013","F=YES, J=NO","xxczzzz4ma","1","71","78","65","","","","","","","","","","","","","","","",""
"null","audio/client1.wav","null","audio-keyboard-response","238","2.1.0","231703","F=YES, J=NO","xxczzzz4ma","1","71","78","65","","","","","","","","","","","","","","","",""
"984","
          <p id=""word"" style=""font-size: 40px;"">land</p>
          <p style=""font-size: 16px;"">F = YES &nbsp;&nbsp;&nbsp; J = NO</p>
        ","j","html-keyboard-response","239","2.1.0","232565","F=YES, J=NO","xxczzzz4ma","1","71","78","65","","","","","","","","","land","client1","metaphor","experimental","f","false","",""
"null","<p style=""font-size: 50px;"">+</p>","null","html-keyboard-response","240","2.1.0","232880","F=YES, J=NO","xxczzzz4ma","1","71","78","65","","","","","","","","","","","","","","","",""
"null","audio/beep-329314.mp3","null","audio-keyboard-response","241","2.1.0","234411","F=YES, J=NO","xxczzzz4ma","1","71","78","65","","","","","","","","","","","","","","","",""
"null","audio/alarm1.wav","null","audio-keyboard-response","242","2.1.0","234980","F=YES, J=NO","xxczzzz4ma","1","71","78","65","","","","","","","","","","","","","","","",""
"1065","
          <p id=""word"" style=""font-size: 40px;"">save</p>
          <p style=""font-size: 16px;"">F = YES &nbsp;&nbsp;&nbsp; J = NO</p>
        ","j","html-keyboard-response","243","2.1.0","236046","F=YES, J=NO","xxczzzz4ma","1","71","78","65","","","","","","","","","save","alarm1","unrelated","experimental","f","false","",""
"null","<p style=""font-size: 50px;"">+</p>","null","html-keyboard-response","244","2.1.0","236350","F=YES, J=NO","xxczzzz4ma","1","71","78","65","","","","","","","","","","","","","","","",""
"null","audio/beep-329314.mp3","null","audio-keyboard-response","245","2.1.0","237891","F=YES, J=NO","xxczzzz4ma","1","71","78","65","","","","","","","","","","","","","","","",""
"null","audio/corpse1.wav","null","audio-keyboard-response","246","2.1.0","238541","F=YES, J=NO","xxczzzz4ma","1","71","78","65","","","","","","","","","","","","","","","",""
"951","
          <p id=""word"" style=""font-size: 40px;"">glonet</p>
          <p style=""font-size: 16px;"">F = YES &nbsp;&nbsp;&nbsp; J = NO</p>
        ","j","html-keyboard-response","247","2.1.0","239493","F=YES, J=NO","xxczzzz4ma","1","71","78","65","","","","","","","","","glonet","corpse1","pseudoword","pseudoword","j","true","",""
"null","<p style=""font-size: 50px;"">+</p>","null","html-keyboard-response","248","2.1.0","239801","F=YES, J=NO","xxczzzz4ma","1","71","78","65","","","","","","","","","","","","","","","",""
"null","audio/beep-329314.mp3","null","audio-keyboard-response","249","2.1.0","241331","F=YES, J=NO","xxczzzz4ma","1","71","78","65","","","","","","","","","","","","","","","",""
"null","audio/gossip1.wav","null","audio-keyboard-response","250","2.1.0","241960","F=YES, J=NO","xxczzzz4ma","1","71","78","65","","","","","","","","","","","","","","","",""
"872","
          <p id=""word"" style=""font-size: 40px;"">camerish</p>
          <p style=""font-size: 16px;"">F = YES &nbsp;&nbsp;&nbsp; J = NO</p>
        ","j","html-keyboard-response","251","2.1.0","242834","F=YES, J=NO","xxczzzz4ma","1","71","78","65","","","","","","","","","camerish","gossip1","pseudoword","pseudoword","j","true","",""
"null","<p style=""font-size: 50px;"">+</p>","null","html-keyboard-response","252","2.1.0","243148","F=YES, J=NO","xxczzzz4ma","1","71","78","65","","","","","","","","","","","","","","","",""
"null","audio/beep-329314.mp3","null","audio-keyboard-response","253","2.1.0","244671","F=YES, J=NO","xxczzzz4ma","1","71","78","65","","","","","","","","","","","","","","","",""
"null","audio/age1.wav","null","audio-keyboard-response","254","2.1.0","245221","F=YES, J=NO","xxczzzz4ma","1","71","78","65","","","","","","","","","","","","","","","",""
"1112","
          <p id=""word"" style=""font-size: 40px;"">seize</p>
          <p style=""font-size: 16px;"">F = YES &nbsp;&nbsp;&nbsp; J = NO</p>
        ","j","html-keyboard-response","255","2.1.0","246334","F=YES, J=NO","xxczzzz4ma","1","71","78","65","","","","","","","","","seize","age1","unrelated","experimental","f","false","",""
"null","<p style=""font-size: 50px;"">+</p>","null","html-keyboard-response","256","2.1.0","246636","F=YES, J=NO","xxczzzz4ma","1","71","78","65","","","","","","","","","","","","","","","",""
"null","audio/beep-329314.mp3","null","audio-keyboard-response","257","2.1.0","248170","F=YES, J=NO","xxczzzz4ma","1","71","78","65","","","","","","","","","","","","","","","",""
"null","audio/storm1.wav","null","audio-keyboard-response","258","2.1.0","248921","F=YES, J=NO","xxczzzz4ma","1","71","78","65","","","","","","","","","","","","","","","",""
"845","
          <p id=""word"" style=""font-size: 40px;"">climb</p>
          <p style=""font-size: 16px;"">F = YES &nbsp;&nbsp;&nbsp; J = NO</p>
        ","f","html-keyboard-response","259","2.1.0","249767","F=YES, J=NO","xxczzzz4ma","1","71","78","65","","","","","","","","","climb","storm1","unrelated","experimental","f","true","",""
"null","<p style=""font-size: 50px;"">+</p>","null","html-keyboard-response","260","2.1.0","250076","F=YES, J=NO","xxczzzz4ma","1","71","78","65","","","","","","","","","","","","","","","",""
"null","audio/beep-329314.mp3","null","audio-keyboard-response","261","2.1.0","251611","F=YES, J=NO","xxczzzz4ma","1","71","78","65","","","","","","","","","","","","","","","",""
"null","audio/gift1.wav","null","audio-keyboard-response","262","2.1.0","252081","F=YES, J=NO","xxczzzz4ma","1","71","78","65","","","","","","","","","","","","","","","",""
"739","
          <p id=""word"" style=""font-size: 40px;"">protsh</p>
          <p style=""font-size: 16px;"">F = YES &nbsp;&nbsp;&nbsp; J = NO</p>
        ","j","html-keyboard-response","263","2.1.0","252821","F=YES, J=NO","xxczzzz4ma","1","71","78","65","","","","","","","","","protsh","gift1","pseudoword","pseudoword","j","true","",""
"null","<p style=""font-size: 50px;"">+</p>","null","html-keyboard-response","264","2.1.0","253137","F=YES, J=NO","xxczzzz4ma","1","71","78","65","","","","","","","","","","","","","","","",""
"null","audio/beep-329314.mp3","null","audio-keyboard-response","265","2.1.0","254671","F=YES, J=NO","xxczzzz4ma","1","71","78","65","","","","","","","","","","","","","","","",""
"null","audio/dome.wav","null","audio-keyboard-response","266","2.1.0","255100","F=YES, J=NO","xxczzzz4ma","1","71","78","65","","","","","","","","","","","","","","","",""
"608","
          <p id=""word"" style=""font-size: 40px;"">scrupliness</p>
          <p style=""font-size: 16px;"">F = YES &nbsp;&nbsp;&nbsp; J = NO</p>
        ","j","html-keyboard-response","267","2.1.0","255710","F=YES, J=NO","xxczzzz4ma","1","71","78","65","","","","","","","","","scrupliness","dome","pseudoword","pseudoword","j","true","",""
"null","<p style=""font-size: 50px;"">+</p>","null","html-keyboard-response","268","2.1.0","256015","F=YES, J=NO","xxczzzz4ma","1","71","78","65","","","","","","","","","","","","","","","",""
"null","audio/beep-329314.mp3","null","audio-keyboard-response","269","2.1.0","257550","F=YES, J=NO","xxczzzz4ma","1","71","78","65","","","","","","","","","","","","","","","",""
"null","audio/theory1.wav","null","audio-keyboard-response","270","2.1.0","258201","F=YES, J=NO","xxczzzz4ma","1","71","78","65","","","","","","","","","","","","","","","",""
"778","
          <p id=""word"" style=""font-size: 40px;"">construct</p>
          <p style=""font-size: 16px;"">F = YES &nbsp;&nbsp;&nbsp; J = NO</p>
        ","j","html-keyboard-response","271","2.1.0","258979","F=YES, J=NO","xxczzzz4ma","1","71","78","65","","","","","","","","","construct","theory1","metaphor","experimental","f","false","",""
"null","<p style=""font-size: 50px;"">+</p>","null","html-keyboard-response","272","2.1.0","259282","F=YES, J=NO","xxczzzz4ma","1","71","78","65","","","","","","","","","","","","","","","",""
"null","audio/beep-329314.mp3","null","audio-keyboard-response","273","2.1.0","260810","F=YES, J=NO","xxczzzz4ma","1","71","78","65","","","","","","","","","","","","","","","",""
"null","audio/age1.wav","null","audio-keyboard-response","274","2.1.0","261341","F=YES, J=NO","xxczzzz4ma","1","71","78","65","","","","","","","","","","","","","","","",""
"589","
          <p id=""word"" style=""font-size: 40px;"">lachry</p>
          <p style=""font-size: 16px;"">F = YES &nbsp;&nbsp;&nbsp; J = NO</p>
        ","j","html-keyboard-response","275","2.1.0","261931","F=YES, J=NO","xxczzzz4ma","1","71","78","65","","","","","","","","","lachry","age1","pseudoword","pseudoword","j","true","",""
"null","<p style=""font-size: 50px;"">+</p>","null","html-keyboard-response","276","2.1.0","262248","F=YES, J=NO","xxczzzz4ma","1","71","78","65","","","","","","","","","","","","","","","",""
"null","audio/beep-329314.mp3","null","audio-keyboard-response","277","2.1.0","263771","F=YES, J=NO","xxczzzz4ma","1","71","78","65","","","","","","","","","","","","","","","",""
"null","audio/bush1.wav","null","audio-keyboard-response","278","2.1.0","264241","F=YES, J=NO","xxczzzz4ma","1","71","78","65","","","","","","","","","","","","","","","",""
"697","
          <p id=""word"" style=""font-size: 40px;"">platined</p>
          <p style=""font-size: 16px;"">F = YES &nbsp;&nbsp;&nbsp; J = NO</p>
        ","j","html-keyboard-response","279","2.1.0","264939","F=YES, J=NO","xxczzzz4ma","1","71","78","65","","","","","","","","","platined","bush1","pseudoword","pseudoword","j","true","",""
"null","<p style=""font-size: 50px;"">+</p>","null","html-keyboard-response","280","2.1.0","265249","F=YES, J=NO","xxczzzz4ma","1","71","78","65","","","","","","","","","","","","","","","",""
"null","audio/beep-329314.mp3","null","audio-keyboard-response","281","2.1.0","266791","F=YES, J=NO","xxczzzz4ma","1","71","78","65","","","","","","","","","","","","","","","",""
"null","audio/cash1.wav","null","audio-keyboard-response","282","2.1.0","267341","F=YES, J=NO","xxczzzz4ma","1","71","78","65","","","","","","","","","","","","","","","",""
"625","
          <p id=""word"" style=""font-size: 40px;"">invest</p>
          <p style=""font-size: 16px;"">F = YES &nbsp;&nbsp;&nbsp; J = NO</p>
        ","f","html-keyboard-response","283","2.1.0","267966","F=YES, J=NO","xxczzzz4ma","1","71","78","65","","","","","","","","","invest","cash1","literal","experimental","f","true","",""
"null","<p style=""font-size: 50px;"">+</p>","null","html-keyboard-response","284","2.1.0","268281","F=YES, J=NO","xxczzzz4ma","1","71","78","65","","","","","","","","","","","","","","","",""
"null","audio/beep-329314.mp3","null","audio-keyboard-response","285","2.1.0","269810","F=YES, J=NO","xxczzzz4ma","1","71","78","65","","","","","","","","","","","","","","","",""
"null","audio/roof1.wav","null","audio-keyboard-response","286","2.1.0","270380","F=YES, J=NO","xxczzzz4ma","1","71","78","65","","","","","","","","","","","","","","","",""
"792","
          <p id=""word"" style=""font-size: 40px;"">wronb</p>
          <p style=""font-size: 16px;"">F = YES &nbsp;&nbsp;&nbsp; J = NO</p>
        ","j","html-keyboard-response","287","2.1.0","271173","F=YES, J=NO","xxczzzz4ma","1","71","78","65","","","","","","","","","wronb","roof1","pseudoword","pseudoword","j","true","",""
"null","<p style=""font-size: 50px;"">+</p>","null","html-keyboard-response","288","2.1.0","271479","F=YES, J=NO","xxczzzz4ma","1","71","78","65","","","","","","","","","","","","","","","",""
"null","audio/beep-329314.mp3","null","audio-keyboard-response","289","2.1.0","273011","F=YES, J=NO","xxczzzz4ma","1","71","78","65","","","","","","","","","","","","","","","",""
"null","audio/pig.wav","null","audio-keyboard-response","290","2.1.0","273401","F=YES, J=NO","xxczzzz4ma","1","71","78","65","","","","","","","","","","","","","","","",""
"859","
          <p id=""word"" style=""font-size: 40px;"">feed</p>
          <p style=""font-size: 16px;"">F = YES &nbsp;&nbsp;&nbsp; J = NO</p>
        ","f","html-keyboard-response","291","2.1.0","274260","F=YES, J=NO","xxczzzz4ma","1","71","78","65","","","","","","","","","feed","pig","literal","experimental","f","true","",""
"null","<p style=""font-size: 50px;"">+</p>","null","html-keyboard-response","292","2.1.0","274566","F=YES, J=NO","xxczzzz4ma","1","71","78","65","","","","","","","","","","","","","","","",""
"null","audio/beep-329314.mp3","null","audio-keyboard-response","293","2.1.0","276090","F=YES, J=NO","xxczzzz4ma","1","71","78","65","","","","","","","","","","","","","","","",""
"null","audio/weight1.wav","null","audio-keyboard-response","294","2.1.0","276600","F=YES, J=NO","xxczzzz4ma","1","71","78","65","","","","","","","","","","","","","","","",""
"785","
          <p id=""word"" style=""font-size: 40px;"">support</p>
          <p style=""font-size: 16px;"">F = YES &nbsp;&nbsp;&nbsp; J = NO</p>
        ","j","html-keyboard-response","295","2.1.0","277386","F=YES, J=NO","xxczzzz4ma","1","71","78","65","","","","","","","","","support","weight1","literal","experimental","f","false","",""
"1021","<p>Excellent! You have finished block 2 of 8.</p>
                     <p>Feel free to take a 30 second break.</p>
                     <p>Press any key when you're ready to continue.</p>","f","html-keyboard-response","296","2.1.0","278408","F=YES, J=NO","xxczzzz4ma","1","71","78","65","","","","","","","","","","","","","","","",""
"469","<p>Starting main block 3 of 8. Press any key to continue.</p>","f","html-keyboard-response","297","2.1.0","278878","F=YES, J=NO","xxczzzz4ma","1","71","78","65","","","","","","","","","","","","","","","",""
"null","<p style=""font-size: 50px;"">+</p>","null","html-keyboard-response","298","2.1.0","279193","F=YES, J=NO","xxczzzz4ma","1","71","78","65","","","","","","","","","","","","","","","",""
"null","audio/beep-329314.mp3","null","audio-keyboard-response","299","2.1.0","280730","F=YES, J=NO","xxczzzz4ma","1","71","78","65","","","","","","","","","","","","","","","",""
"null","audio/mile1.wav","null","audio-keyboard-response","300","2.1.0","281340","F=YES, J=NO","xxczzzz4ma","1","71","78","65","","","","","","","","","","","","","","","",""
"799","
          <p id=""word"" style=""font-size: 40px;"">writch</p>
          <p style=""font-size: 16px;"">F = YES &nbsp;&nbsp;&nbsp; J = NO</p>
        ","j","html-keyboard-response","301","2.1.0","282140","F=YES, J=NO","xxczzzz4ma","1","71","78","65","","","","","","","","","writch","mile1","pseudoword","pseudoword","j","true","",""
"null","<p style=""font-size: 50px;"">+</p>","null","html-keyboard-response","302","2.1.0","282448","F=YES, J=NO","xxczzzz4ma","1","71","78","65","","","","","","","","","","","","","","","",""
"null","audio/beep-329314.mp3","null","audio-keyboard-response","303","2.1.0","283970","F=YES, J=NO","xxczzzz4ma","1","71","78","65","","","","","","","","","","","","","","","",""
"null","audio/meal.wav","null","audio-keyboard-response","304","2.1.0","284440","F=YES, J=NO","xxczzzz4ma","1","71","78","65","","","","","","","","","","","","","","","",""
"531","
          <p id=""word"" style=""font-size: 40px;"">gallite</p>
          <p style=""font-size: 16px;"">F = YES &nbsp;&nbsp;&nbsp; J = NO</p>
        ","j","html-keyboard-response","305","2.1.0","284972","F=YES, J=NO","xxczzzz4ma","1","71","78","65","","","","","","","","","gallite","meal","pseudoword","pseudoword","j","true","",""
"null","<p style=""font-size: 50px;"">+</p>","null","html-keyboard-response","306","2.1.0","285282","F=YES, J=NO","xxczzzz4ma","1","71","78","65","","","","","","","","","","","","","","","",""
"null","audio/beep-329314.mp3","null","audio-keyboard-response","307","2.1.0","286811","F=YES, J=NO","xxczzzz4ma","1","71","78","65","","","","","","","","","","","","","","","",""
"null","audio/tunnel.wav","null","audio-keyboard-response","308","2.1.0","287241","F=YES, J=NO","xxczzzz4ma","1","71","78","65","","","","","","","","","","","","","","","",""
"995","
          <p id=""word"" style=""font-size: 40px;"">grasp</p>
          <p style=""font-size: 16px;"">F = YES &nbsp;&nbsp;&nbsp; J = NO</p>
        ","j","html-keyboard-response","309","2.1.0","288237","F=YES, J=NO","xxczzzz4ma","1","71","78","65","","","","","","","","","grasp","tunnel","unrelated","experimental","f","false","",""
"null","<p style=""font-size: 50px;"">+</p>","null","html-keyboard-response","310","2.1.0","288547","F=YES, J=NO","xxczzzz4ma","1","71","78","65","","","","","","","","","","","","","","","",""
"null","audio/beep-329314.mp3","null","audio-keyboard-response","311","2.1.0","290070","F=YES, J=NO","xxczzzz4ma","1","71","78","65","","","","","","","","","","","","","","","",""
"null","audio/menu.wav","null","audio-keyboard-response","312","2.1.0","290641","F=YES, J=NO","xxczzzz4ma","1","71","78","65","","","","","","","","","","","","","","","",""
"1265","
          <p id=""word"" style=""font-size: 40px;"">slice</p>
          <p style=""font-size: 16px;"">F = YES &nbsp;&nbsp;&nbsp; J = NO</p>
        ","j","html-keyboard-response","313","2.1.0","291784","F=YES, J=NO","xxczzzz4ma","1","71","78","65","","","","","","","","","slice","menu","filler","filler","f","false","",""
"null","<p style=""font-size: 50px;"">+</p>","null","html-keyboard-response","314","2.1.0","292090","F=YES, J=NO","xxczzzz4ma","1","71","78","65","","","","","","","","","","","","","","","",""
"null","audio/beep-329314.mp3","null","audio-keyboard-response","315","2.1.0","293627","F=YES, J=NO","xxczzzz4ma","1","71","78","65","","","","","","","","","","","","","","","",""
"null","audio/butter1.wav","null","audio-keyboard-response","316","2.1.0","294197","F=YES, J=NO","xxczzzz4ma","1","71","78","65","","","","","","","","","","","","","","","",""
"1027","
          <p id=""word"" style=""font-size: 40px;"">chew</p>
          <p style=""font-size: 16px;"">F = YES &nbsp;&nbsp;&nbsp; J = NO</p>
        ","j","html-keyboard-response","317","2.1.0","295226","F=YES, J=NO","xxczzzz4ma","1","71","78","65","","","","","","","","","chew","butter1","filler","filler","f","false","",""
"null","<p style=""font-size: 50px;"">+</p>","null","html-keyboard-response","318","2.1.0","295542","F=YES, J=NO","xxczzzz4ma","1","71","78","65","","","","","","","","","","","","","","","",""
"null","audio/beep-329314.mp3","null","audio-keyboard-response","319","2.1.0","297067","F=YES, J=NO","xxczzzz4ma","1","71","78","65","","","","","","","","","","","","","","","",""
"null","audio/van1.wav","null","audio-keyboard-response","320","2.1.0","297558","F=YES, J=NO","xxczzzz4ma","1","71","78","65","","","","","","","","","","","","","","","",""
"807","
          <p id=""word"" style=""font-size: 40px;"">push</p>
          <p style=""font-size: 16px;"">F = YES &nbsp;&nbsp;&nbsp; J = NO</p>
        ","j","html-keyboard-response","321","2.1.0","298366","F=YES, J=NO","xxczzzz4ma","1","71","78","65","","","","","","","","","push","van1","filler","filler","f","false","",""
"null","<p style=""font-size: 50px;"">+</p>","null","html-keyboard-response","322","2.1.0","298676","F=YES, J=NO","xxczzzz4ma","1","71","78","65","","","","","","","","","","","","","","","",""
"null","audio/beep-329314.mp3","null","audio-keyboard-response","323","2.1.0","300208","F=YES, J=NO","xxczzzz4ma","1","71","78","65","","","","","","","","","","","","","","","",""
"null","audio/prisoner.wav","null","audio-keyboard-response","324","2.1.0","300738","F=YES, J=NO","xxczzzz4ma","1","71","78","65","","","","","","","","","","","","","","","",""
"971","
          <p id=""word"" style=""font-size: 40px;"">egotian</p>
          <p style=""font-size: 16px;"">F = YES &nbsp;&nbsp;&nbsp; J = NO</p>
        ","j","html-keyboard-response","325","2.1.0","301710","F=YES, J=NO","xxczzzz4ma","1","71","78","65","","","","","","","","","egotian","prisoner","pseudoword","pseudoword","j","true","",""
"null","<p style=""font-size: 50px;"">+</p>","null","html-keyboard-response","326","2.1.0","302028","F=YES, J=NO","xxczzzz4ma","1","71","78","65","","","","","","","","","","","","","","","",""
"null","audio/beep-329314.mp3","null","audio-keyboard-response","327","2.1.0","303568","F=YES, J=NO","xxczzzz4ma","1","71","78","65","","","","","","","","","","","","","","","",""
"null","audio/effort.wav","null","audio-keyboard-response","328","2.1.0","304158","F=YES, J=NO","xxczzzz4ma","1","71","78","65","","","","","","","","","","","","","","","",""
"802","
          <p id=""word"" style=""font-size: 40px;"">whonk</p>
          <p style=""font-size: 16px;"">F = YES &nbsp;&nbsp;&nbsp; J = NO</p>
        ","j","html-keyboard-response","329","2.1.0","304961","F=YES, J=NO","xxczzzz4ma","1","71","78","65","","","","","","","","","whonk","effort","pseudoword","pseudoword","j","true","",""
"null","<p style=""font-size: 50px;"">+</p>","null","html-keyboard-response","330","2.1.0","305277","F=YES, J=NO","xxczzzz4ma","1","71","78","65","","","","","","","","","","","","","","","",""
"null","audio/beep-329314.mp3","null","audio-keyboard-response","331","2.1.0","306808","F=YES, J=NO","xxczzzz4ma","1","71","78","65","","","","","","","","","","","","","","","",""
"null","audio/burden.wav","null","audio-keyboard-response","332","2.1.0","307337","F=YES, J=NO","xxczzzz4ma","1","71","78","65","","","","","","","","","","","","","","","",""
"556","
          <p id=""word"" style=""font-size: 40px;"">whotth</p>
          <p style=""font-size: 16px;"">F = YES &nbsp;&nbsp;&nbsp; J = NO</p>
        ","j","html-keyboard-response","333","2.1.0","307895","F=YES, J=NO","xxczzzz4ma","1","71","78","65","","","","","","","","","whotth","burden","pseudoword","pseudoword","j","true","",""
"null","<p style=""font-size: 50px;"">+</p>","null","html-keyboard-response","334","2.1.0","308207","F=YES, J=NO","xxczzzz4ma","1","71","78","65","","","","","","","","","","","","","","","",""
"null","audio/beep-329314.mp3","null","audio-keyboard-response","335","2.1.0","309748","F=YES, J=NO","xxczzzz4ma","1","71","78","65","","","","","","","","","","","","","","","",""
"null","audio/golf1.wav","null","audio-keyboard-response","336","2.1.0","310437","F=YES, J=NO","xxczzzz4ma","1","71","78","65","","","","","","","","","","","","","","","",""
"800","
          <p id=""word"" style=""font-size: 40px;"">drabble</p>
          <p style=""font-size: 16px;"">F = YES &nbsp;&nbsp;&nbsp; J = NO</p>
        ","j","html-keyboard-response","337","2.1.0","311238","F=YES, J=NO","xxczzzz4ma","1","71","78","65","","","","","","","","","drabble","golf1","pseudoword","pseudoword","j","true","",""
"null","<p style=""font-size: 50px;"">+</p>","null","html-keyboard-response","338","2.1.0","311543","F=YES, J=NO","xxczzzz4ma","1","71","78","65","","","","","","","","","","","","","","","",""
"null","audio/beep-329314.mp3","null","audio-keyboard-response","339","2.1.0","313067","F=YES, J=NO","xxczzzz4ma","1","71","78","65","","","","","","","","","","","","","","","",""
"null","audio/theory1.wav","null","audio-keyboard-response","340","2.1.0","313698","F=YES, J=NO","xxczzzz4ma","1","71","78","65","","","","","","","","","","","","","","","",""
"628","
          <p id=""word"" style=""font-size: 40px;"">scolve</p>
          <p style=""font-size: 16px;"">F = YES &nbsp;&nbsp;&nbsp; J = NO</p>
        ","j","html-keyboard-response","341","2.1.0","314327","F=YES, J=NO","xxczzzz4ma","1","71","78","65","","","","","","","","","scolve","theory1","pseudoword","pseudoword","j","true","",""
"null","<p style=""font-size: 50px;"">+</p>","null","html-keyboard-response","342","2.1.0","314629","F=YES, J=NO","xxczzzz4ma","1","71","78","65","","","","","","","","","","","","","","","",""
"null","audio/beep-329314.mp3","null","audio-keyboard-response","343","2.1.0","316168","F=YES, J=NO","xxczzzz4ma","1","71","78","65","","","","","","","","","","","","","","","",""
"null","audio/key1.wav","null","audio-keyboard-response","344","2.1.0","316538","F=YES, J=NO","xxczzzz4ma","1","71","78","65","","","","","","","","","","","","","","","",""
"611","
          <p id=""word"" style=""font-size: 40px;"">sminsh</p>
          <p style=""font-size: 16px;"">F = YES &nbsp;&nbsp;&nbsp; J = NO</p>
        ","j","html-keyboard-response","345","2.1.0","317150","F=YES, J=NO","xxczzzz4ma","1","71","78","65","","","","","","","","","sminsh","key1","pseudoword","pseudoword","j","true","",""
"null","<p style=""font-size: 50px;"">+</p>","null","html-keyboard-response","346","2.1.0","317458","F=YES, J=NO","xxczzzz4ma","1","71","78","65","","","","","","","","","","","","","","","",""
"null","audio/beep-329314.mp3","null","audio-keyboard-response","347","2.1.0","318988","F=YES, J=NO","xxczzzz4ma","1","71","78","65","","","","","","","","","","","","","","","",""
"null","audio/stain.wav","null","audio-keyboard-response","348","2.1.0","319658","F=YES, J=NO","xxczzzz4ma","1","71","78","65","","","","","","","","","","","","","","","",""
"561","
          <p id=""word"" style=""font-size: 40px;"">rumpsied</p>
          <p style=""font-size: 16px;"">F = YES &nbsp;&nbsp;&nbsp; J = NO</p>
        ","j","html-keyboard-response","349","2.1.0","320219","F=YES, J=NO","xxczzzz4ma","1","71","78","65","","","","","","","","","rumpsied","stain","pseudoword","pseudoword","j","true","",""
"null","<p style=""font-size: 50px;"">+</p>","null","html-keyboard-response","350","2.1.0","320528","F=YES, J=NO","xxczzzz4ma","1","71","78","65","","","","","","","","","","","","","","","",""
"null","audio/beep-329314.mp3","null","audio-keyboard-response","351","2.1.0","322068","F=YES, J=NO","xxczzzz4ma","1","71","78","65","","","","","","","","","","","","","","","",""
"null","audio/cinema1.wav","null","audio-keyboard-response","352","2.1.0","322677","F=YES, J=NO","xxczzzz4ma","1","71","78","65","","","","","","","","","","","","","","","",""
"666","
          <p id=""word"" style=""font-size: 40px;"">murple</p>
          <p style=""font-size: 16px;"">F = YES &nbsp;&nbsp;&nbsp; J = NO</p>
        ","j","html-keyboard-response","353","2.1.0","323345","F=YES, J=NO","xxczzzz4ma","1","71","78","65","","","","","","","","","murple","cinema1","pseudoword","pseudoword","j","true","",""
"null","<p style=""font-size: 50px;"">+</p>","null","html-keyboard-response","354","2.1.0","323647","F=YES, J=NO","xxczzzz4ma","1","71","78","65","","","","","","","","","","","","","","","",""
"null","audio/beep-329314.mp3","null","audio-keyboard-response","355","2.1.0","325188","F=YES, J=NO","xxczzzz4ma","1","71","78","65","","","","","","","","","","","","","","","",""
"null","audio/trust.wav","null","audio-keyboard-response","356","2.1.0","325818","F=YES, J=NO","xxczzzz4ma","1","71","78","65","","","","","","","","","","","","","","","",""
"667","
          <p id=""word"" style=""font-size: 40px;"">swint</p>
          <p style=""font-size: 16px;"">F = YES &nbsp;&nbsp;&nbsp; J = NO</p>
        ","j","html-keyboard-response","357","2.1.0","326485","F=YES, J=NO","xxczzzz4ma","1","71","78","65","","","","","","","","","swint","trust","pseudoword","pseudoword","j","true","",""
"null","<p style=""font-size: 50px;"">+</p>","null","html-keyboard-response","358","2.1.0","326796","F=YES, J=NO","xxczzzz4ma","1","71","78","65","","","","","","","","","","","","","","","",""
"null","audio/beep-329314.mp3","null","audio-keyboard-response","359","2.1.0","328327","F=YES, J=NO","xxczzzz4ma","1","71","78","65","","","","","","","","","","","","","","","",""
"null","audio/ego.wav","null","audio-keyboard-response","360","2.1.0","328898","F=YES, J=NO","xxczzzz4ma","1","71","78","65","","","","","","","","","","","","","","","",""
"710","
          <p id=""word"" style=""font-size: 40px;"">bruite</p>
          <p style=""font-size: 16px;"">F = YES &nbsp;&nbsp;&nbsp; J = NO</p>
        ","j","html-keyboard-response","361","2.1.0","329609","F=YES, J=NO","xxczzzz4ma","1","71","78","65","","","","","","","","","bruite","ego","pseudoword","pseudoword","j","true","",""
"2095","<p>Excellent! You have finished block 3 of 8.</p>
                     <p>Feel free to take a 30 second break.</p>
                     <p>Press any key when you're ready to continue.</p>","f","html-keyboard-response","362","2.1.0","331704","F=YES, J=NO","xxczzzz4ma","1","71","78","65","","","","","","","","","","","","","","","",""
"1540","<p>Starting main block 4 of 8. Press any key to continue.</p>","f","html-keyboard-response","363","2.1.0","333245","F=YES, J=NO","xxczzzz4ma","1","71","78","65","","","","","","","","","","","","","","","",""
"null","<p style=""font-size: 50px;"">+</p>","null","html-keyboard-response","364","2.1.0","333547","F=YES, J=NO","xxczzzz4ma","1","71","78","65","","","","","","","","","","","","","","","",""
"null","audio/beep-329314.mp3","null","audio-keyboard-response","365","2.1.0","335088","F=YES, J=NO","xxczzzz4ma","1","71","78","65","","","","","","","","","","","","","","","",""
"null","audio/mouth1.wav","null","audio-keyboard-response","366","2.1.0","335657","F=YES, J=NO","xxczzzz4ma","1","71","78","65","","","","","","","","","","","","","","","",""
"609","
          <p id=""word"" style=""font-size: 40px;"">spolial</p>
          <p style=""font-size: 16px;"">F = YES &nbsp;&nbsp;&nbsp; J = NO</p>
        ","j","html-keyboard-response","367","2.1.0","336268","F=YES, J=NO","xxczzzz4ma","1","71","78","65","","","","","","","","","spolial","mouth1","pseudoword","pseudoword","j","true","",""
"null","<p style=""font-size: 50px;"">+</p>","null","html-keyboard-response","368","2.1.0","336577","F=YES, J=NO","xxczzzz4ma","1","71","78","65","","","","","","","","","","","","","","","",""
"null","audio/beep-329314.mp3","null","audio-keyboard-response","369","2.1.0","338108","F=YES, J=NO","xxczzzz4ma","1","71","78","65","","","","","","","","","","","","","","","",""
"null","audio/wool1.wav","null","audio-keyboard-response","370","2.1.0","338478","F=YES, J=NO","xxczzzz4ma","1","71","78","65","","","","","","","","","","","","","","","",""
"644","
          <p id=""word"" style=""font-size: 40px;"">weave</p>
          <p style=""font-size: 16px;"">F = YES &nbsp;&nbsp;&nbsp; J = NO</p>
        ","j","html-keyboard-response","371","2.1.0","339123","F=YES, J=NO","xxczzzz4ma","1","71","78","65","","","","","","","","","weave","wool1","literal","experimental","f","false","",""
"null","<p style=""font-size: 50px;"">+</p>","null","html-keyboard-response","372","2.1.0","339430","F=YES, J=NO","xxczzzz4ma","1","71","78","65","","","","","","","","","","","","","","","",""
"null","audio/beep-329314.mp3","null","audio-keyboard-response","373","2.1.0","340967","F=YES, J=NO","xxczzzz4ma","1","71","78","65","","","","","","","","","","","","","","","",""
"null","audio/show.wav","null","audio-keyboard-response","374","2.1.0","341638","F=YES, J=NO","xxczzzz4ma","1","71","78","65","","","","","","","","","","","","","","","",""
"906","
          <p id=""word"" style=""font-size: 40px;"">smark</p>
          <p style=""font-size: 16px;"">F = YES &nbsp;&nbsp;&nbsp; J = NO</p>
        ","j","html-keyboard-response","375","2.1.0","342545","F=YES, J=NO","xxczzzz4ma","1","71","78","65","","","","","","","","","smark","show","pseudoword","pseudoword","j","true","",""
"null","<p style=""font-size: 50px;"">+</p>","null","html-keyboard-response","376","2.1.0","342858","F=YES, J=NO","xxczzzz4ma","1","71","78","65","","","","","","","","","","","","","","","",""
"null","audio/beep-329314.mp3","null","audio-keyboard-response","377","2.1.0","344388","F=YES, J=NO","xxczzzz4ma","1","71","78","65","","","","","","","","","","","","","","","",""
"null","audio/hawk1.wav","null","audio-keyboard-response","378","2.1.0","344998","F=YES, J=NO","xxczzzz4ma","1","71","78","65","","","","","","","","","","","","","","","",""
"574","
          <p id=""word"" style=""font-size: 40px;"">ostach</p>
          <p style=""font-size: 16px;"">F = YES &nbsp;&nbsp;&nbsp; J = NO</p>
        ","j","html-keyboard-response","379","2.1.0","345573","F=YES, J=NO","xxczzzz4ma","1","71","78","65","","","","","","","","","ostach","hawk1","pseudoword","pseudoword","j","true","",""
"null","<p style=""font-size: 50px;"">+</p>","null","html-keyboard-response","380","2.1.0","345874","F=YES, J=NO","xxczzzz4ma","1","71","78","65","","","","","","","","","","","","","","","",""
"null","audio/beep-329314.mp3","null","audio-keyboard-response","381","2.1.0","347408","F=YES, J=NO","xxczzzz4ma","1","71","78","65","","","","","","","","","","","","","","","",""
"null","audio/bush1.wav","null","audio-keyboard-response","382","2.1.0","347858","F=YES, J=NO","xxczzzz4ma","1","71","78","65","","","","","","","","","","","","","","","",""
"953","
          <p id=""word"" style=""font-size: 40px;"">run</p>
          <p style=""font-size: 16px;"">F = YES &nbsp;&nbsp;&nbsp; J = NO</p>
        ","j","html-keyboard-response","383","2.1.0","348813","F=YES, J=NO","xxczzzz4ma","1","71","78","65","","","","","","","","","run","bush1","unrelated","experimental","f","false","",""
"null","<p style=""font-size: 50px;"">+</p>","null","html-keyboard-response","384","2.1.0","349127","F=YES, J=NO","xxczzzz4ma","1","71","78","65","","","","","","","","","","","","","","","",""
"null","audio/beep-329314.mp3","null","audio-keyboard-response","385","2.1.0","350667","F=YES, J=NO","xxczzzz4ma","1","71","78","65","","","","","","","","","","","","","","","",""
"null","audio/terrain.wav","null","audio-keyboard-response","386","2.1.0","351238","F=YES, J=NO","xxczzzz4ma","1","71","78","65","","","","","","","","","","","","","","","",""
"876","
          <p id=""word"" style=""font-size: 40px;"">twist</p>
          <p style=""font-size: 16px;"">F = YES &nbsp;&nbsp;&nbsp; J = NO</p>
        ","j","html-keyboard-response","387","2.1.0","351991","F=YES, J=NO","xxczzzz4ma","1","71","78","65","","","","","","","","","twist","terrain","filler","filler","f","false","",""
"null","<p style=""font-size: 50px;"">+</p>","null","html-keyboard-response","388","2.1.0","352305","F=YES, J=NO","xxczzzz4ma","1","71","78","65","","","","","","","","","","","","","","","",""
"null","audio/beep-329314.mp3","null","audio-keyboard-response","389","2.1.0","353844","F=YES, J=NO","xxczzzz4ma","1","71","78","65","","","","","","","","","","","","","","","",""
"null","audio/cancer1.wav","null","audio-keyboard-response","390","2.1.0","354374","F=YES, J=NO","xxczzzz4ma","1","71","78","65","","","","","","","","","","","","","","","",""
"1027","
          <p id=""word"" style=""font-size: 40px;"">fight</p>
          <p style=""font-size: 16px;"">F = YES &nbsp;&nbsp;&nbsp; J = NO</p>
        ","j","html-keyboard-response","391","2.1.0","355402","F=YES, J=NO","xxczzzz4ma","1","71","78","65","","","","","","","","","fight","cancer1","metaphor","experimental","f","false","",""
