"rt","stimulus","response","trial_type","trial_index","plugin_version","time_elapsed","response_mapping","subject_id","list_index","lextale_score","lextale_word_score","lextale_nonword_score","success","timeout","failed_images","failed_audio","failed_video","task","isWord","isDummy","target","prime","prime_type","stimulus_type","correct_response","correct","section","question_order"
"23733","
    <div style=""max-width: 800px; margin: auto; text-align: left;"">
      <h2>STANFORD UNIVERSITY</h2>
      <h3>Research Information Sheet</h3>
      <p><strong>Protocol Director:</strong> Robert Hawkins<br>
      <strong>Protocol Title:</strong> Communication and social cognition in natural audiovisual contexts<br>
      <strong>IRB#:</strong> 77226</p>

      <p><strong>DESCRIPTION:</strong> You are invited to participate in a research study about language and communication. The purpose of the research is to understand how you interact and communicate with other people in naturalistic settings as a fluent English speaker. This research will be conducted through the Prolific platform, including participants from the US, UK, and Canada. If you decide to participate in this research, you will play a communication game in a group with one or more partners.</p>

      <p><strong>TIME INVOLVEMENT:</strong> The task will last the amount of time advertised on Prolific. You are free to withdraw from the study at any time.</p>

      <p><strong>RISKS AND BENEFITS:</strong> You may become frustrated if your partner gets distracted, or experience discomfort if other participants in your group send text that is inappropriate for the task. We ask you to please be respectful of other participants you might be interacting with to mitigate these risks. You may also experience discomfort when being asked to discuss or challenge emotionally salient political beliefs. Study data will be stored securely, in compliance with Stanford University standards, minimizing the risk of confidentiality breach. This study advances our scientific understanding of how people communicate and collaborate in naturalistic settings. This study may lead to further insights about what can go wrong in teamwork, suggest potential interventions to overcome these barriers, and help to develop assistive technologies that collaborate with human partners. We cannot and do not guarantee or promise that you will receive any benefits from this study.</p>

      <p><strong>PAYMENTS:</strong> You will receive payment in the amount advertised on Prolific. If you do not complete this study, you will receive prorated payment based on the time that you have spent. Additionally, you may be eligible for bonus payments as described in the instructions.</p>

      <p><strong>PARTICIPANT’S RIGHTS:</strong> If you have read this form and have decided to participate in this project, please understand your participation is voluntary and you have the right to withdraw your consent or discontinue participation at any time without penalty or loss of benefits to which you are otherwise entitled. The alternative is not to participate. You have the right to refuse to answer particular questions. The results of this research study may be presented at scientific or professional meetings or published in scientific journals. Your individual privacy will be maintained in all published and written data resulting from the study. In accordance with scientific norms, the data from this study may be used or shared with other researchers for future research (after removing personally identifying information) without additional consent from you.</p>

      <p><strong>CONTACT INFORMATION:</strong><br>
      Questions: If you have any questions, concerns or complaints about this research, its procedures, risks and benefits, contact the Protocol Director, Robert Hawkins (<a href=""mailto:rdhawkins@stanford.edu"">rdhawkins@stanford.edu</a>, 217-549-6923).<br>
      Independent Contact: If you are not satisfied with how this study is being conducted, or if you have any concerns, complaints, or general questions about the research or your rights as a participant, please contact the Stanford Institutional Review Board (IRB) to speak to someone independent of the research team at 650-723-2480 or toll free at 1-866-680-2906, or email at <a href=""mailto:irbnon-med@stanford.edu"">irbnon-med@stanford.edu</a>. You can also write to the Stanford IRB, Stanford University, 1705 El Camino Real, Palo Alto, CA 94306.</p>

      <p><strong>Please save or print a copy of this page for your records.</strong></p>
      <p>If you agree to participate in this research, click ""Continue"" below.</p>
    </div>
  ","0","html-button-response","0","2.1.0","23739","F=YES, J=NO","y2fgphutqv","1","74","78","70","","","","","","","","","","","","","","","",""
"8228","
    <div style=""max-width: 800px; margin: auto; text-align: left;"">
      <h2>Welcome!</h2>
      <p>Thank you for participating in this study. The experiment consists of three parts:</p>
      <ol>
        <li>An English vocabulary test</li>
        <li>A main task in which you will hear and see words, and decide whether the written word is a real English word</li>
        <li>A brief survey about your background</li>
      </ol>
      <p>Each part will be introduced before it begins.</p>
      <p>Please make sure you are in a quiet environment and can hear audio clearly for the final task.</p>
      <p style=""margin-top: 2em;"">Press any key to begin.</p>
    </div>
  ","Enter","html-keyboard-response","1","2.1.0","31969","F=YES, J=NO","y2fgphutqv","1","74","78","70","","","","","","","","","","","","","","","",""
"","","","preload","2","2.1.0","32733","F=YES, J=NO","y2fgphutqv","1","74","78","70","true","false","[]","[]","[]","","","","","","","","","","",""
"5579","
    <div style=""max-width: 800px; margin: auto; text-align: left;"">
      <h2>Part 1: Vocabulary Test</h2>
      <p>You will now complete the first part of the study: a short English vocabulary test.</p>
      <p>This test is called <strong>LexTALE</strong> and helps us get a general sense of your English proficiency.</p>
      <p style=""margin-top: 2em;"">Press any key to continue.</p>
    </div>
  ","Enter","html-keyboard-response","3","2.1.0","38312","F=YES, J=NO","y2fgphutqv","1","74","78","70","","","","","","","","","","","","","","","",""
"11792","
    <div style=""max-width: 800px; margin: auto; text-align: left;"">
      <h2>LexTALE Vocabulary Test</h2>
      <p>In this test, you will see a series of letter strings—one at a time.</p>
      <p>Your task is to decide whether each string is a real English word.</p>
      <p><strong>Key responses:</strong></p>
      <ul>
        <li><strong>F</strong> = YES (real English word)</li>
        <li><strong>J</strong> = NO (not a real English word)</li>
      </ul>
      <p>There is no time limit, but please try to be accurate.</p>
      <p style=""margin-top: 2em;"">Press any key to begin.</p>
    </div>
  ","Control","html-keyboard-response","4","2.1.0","50105","F=YES, J=NO","y2fgphutqv","1","74","78","70","","","","","","","","","","","","","","","",""
"4631","
  <p style=""font-size: 40px;"">platery</p>
  <p style=""font-size: 16px;"">F = YES &nbsp;&nbsp;&nbsp; J = NO</p>
","f","html-keyboard-response","5","2.1.0","54737","F=YES, J=NO","y2fgphutqv","1","74","78","70","","","","","","lextale","false","true","","","","","","","",""
"1015","
  <p style=""font-size: 40px;"">denial</p>
  <p style=""font-size: 16px;"">F = YES &nbsp;&nbsp;&nbsp; J = NO</p>
","f","html-keyboard-response","6","2.1.0","55753","F=YES, J=NO","y2fgphutqv","1","74","78","70","","","","","","lextale","true","true","","","","","","","",""
"1751","
  <p style=""font-size: 40px;"">marrit</p>
  <p style=""font-size: 16px;"">F = YES &nbsp;&nbsp;&nbsp; J = NO</p>
","j","html-keyboard-response","7","2.1.0","57505","F=YES, J=NO","y2fgphutqv","1","74","78","70","","","","","","lextale","false","true","","","","","","","",""
"2968","
  <p style=""font-size: 40px;"">bottle</p>
  <p style=""font-size: 16px;"">F = YES &nbsp;&nbsp;&nbsp; J = NO</p>
","f","html-keyboard-response","8","2.1.0","60473","F=YES, J=NO","y2fgphutqv","1","74","78","70","","","","","","lextale","true","false","","","","","","","",""
"3958","
  <p style=""font-size: 40px;"">birst</p>
  <p style=""font-size: 16px;"">F = YES &nbsp;&nbsp;&nbsp; J = NO</p>
","j","html-keyboard-response","9","2.1.0","64432","F=YES, J=NO","y2fgphutqv","1","74","78","70","","","","","","lextale","false","false","","","","","","","",""
"920","
  <p style=""font-size: 40px;"">envy</p>
  <p style=""font-size: 16px;"">F = YES &nbsp;&nbsp;&nbsp; J = NO</p>
","f","html-keyboard-response","10","2.1.0","65353","F=YES, J=NO","y2fgphutqv","1","74","78","70","","","","","","lextale","true","false","","","","","","","",""
"2223","
  <p style=""font-size: 40px;"">brang</p>
  <p style=""font-size: 16px;"">F = YES &nbsp;&nbsp;&nbsp; J = NO</p>
","j","html-keyboard-response","11","2.1.0","67577","F=YES, J=NO","y2fgphutqv","1","74","78","70","","","","","","lextale","false","false","","","","","","","",""
"751","
  <p style=""font-size: 40px;"">huge</p>
  <p style=""font-size: 16px;"">F = YES &nbsp;&nbsp;&nbsp; J = NO</p>
","f","html-keyboard-response","12","2.1.0","68329","F=YES, J=NO","y2fgphutqv","1","74","78","70","","","","","","lextale","true","false","","","","","","","",""
"1351","
  <p style=""font-size: 40px;"">plove</p>
  <p style=""font-size: 16px;"">F = YES &nbsp;&nbsp;&nbsp; J = NO</p>
","f","html-keyboard-response","13","2.1.0","69680","F=YES, J=NO","y2fgphutqv","1","74","78","70","","","","","","lextale","false","false","","","","","","","",""
"727","
  <p style=""font-size: 40px;"">border</p>
  <p style=""font-size: 16px;"">F = YES &nbsp;&nbsp;&nbsp; J = NO</p>
","f","html-keyboard-response","14","2.1.0","70409","F=YES, J=NO","y2fgphutqv","1","74","78","70","","","","","","lextale","true","false","","","","","","","",""
"1567","
  <p style=""font-size: 40px;"">flimsy</p>
  <p style=""font-size: 16px;"">F = YES &nbsp;&nbsp;&nbsp; J = NO</p>
","f","html-keyboard-response","15","2.1.0","71977","F=YES, J=NO","y2fgphutqv","1","74","78","70","","","","","","lextale","true","false","","","","","","","",""
"935","
  <p style=""font-size: 40px;"">drain</p>
  <p style=""font-size: 16px;"">F = YES &nbsp;&nbsp;&nbsp; J = NO</p>
","f","html-keyboard-response","16","2.1.0","72912","F=YES, J=NO","y2fgphutqv","1","74","78","70","","","","","","lextale","true","false","","","","","","","",""
"1184","
  <p style=""font-size: 40px;"">twindle</p>
  <p style=""font-size: 16px;"">F = YES &nbsp;&nbsp;&nbsp; J = NO</p>
","j","html-keyboard-response","17","2.1.0","74097","F=YES, J=NO","y2fgphutqv","1","74","78","70","","","","","","lextale","false","false","","","","","","","",""
"783","
  <p style=""font-size: 40px;"">propose</p>
  <p style=""font-size: 16px;"">F = YES &nbsp;&nbsp;&nbsp; J = NO</p>
","f","html-keyboard-response","18","2.1.0","74880","F=YES, J=NO","y2fgphutqv","1","74","78","70","","","","","","lextale","true","false","","","","","","","",""
"1752","
  <p style=""font-size: 40px;"">forlay</p>
  <p style=""font-size: 16px;"">F = YES &nbsp;&nbsp;&nbsp; J = NO</p>
","f","html-keyboard-response","19","2.1.0","76633","F=YES, J=NO","y2fgphutqv","1","74","78","70","","","","","","lextale","false","false","","","","","","","",""
"799","
  <p style=""font-size: 40px;"">tenant</p>
  <p style=""font-size: 16px;"">F = YES &nbsp;&nbsp;&nbsp; J = NO</p>
","f","html-keyboard-response","20","2.1.0","77433","F=YES, J=NO","y2fgphutqv","1","74","78","70","","","","","","lextale","true","false","","","","","","","",""
"1023","
  <p style=""font-size: 40px;"">strain</p>
  <p style=""font-size: 16px;"">F = YES &nbsp;&nbsp;&nbsp; J = NO</p>
","f","html-keyboard-response","21","2.1.0","78457","F=YES, J=NO","y2fgphutqv","1","74","78","70","","","","","","lextale","true","false","","","","","","","",""
"2967","
  <p style=""font-size: 40px;"">holster</p>
  <p style=""font-size: 16px;"">F = YES &nbsp;&nbsp;&nbsp; J = NO</p>
","f","html-keyboard-response","22","2.1.0","81424","F=YES, J=NO","y2fgphutqv","1","74","78","70","","","","","","lextale","true","false","","","","","","","",""
"1407","
  <p style=""font-size: 40px;"">hinder</p>
  <p style=""font-size: 16px;"">F = YES &nbsp;&nbsp;&nbsp; J = NO</p>
","f","html-keyboard-response","23","2.1.0","82832","F=YES, J=NO","y2fgphutqv","1","74","78","70","","","","","","lextale","true","false","","","","","","","",""
"1343","
  <p style=""font-size: 40px;"">swindle</p>
  <p style=""font-size: 16px;"">F = YES &nbsp;&nbsp;&nbsp; J = NO</p>
","f","html-keyboard-response","24","2.1.0","84176","F=YES, J=NO","y2fgphutqv","1","74","78","70","","","","","","lextale","true","false","","","","","","","",""
"848","
  <p style=""font-size: 40px;"">nuder</p>
  <p style=""font-size: 16px;"">F = YES &nbsp;&nbsp;&nbsp; J = NO</p>
","j","html-keyboard-response","25","2.1.0","85025","F=YES, J=NO","y2fgphutqv","1","74","78","70","","","","","","lextale","false","false","","","","","","","",""
"775","
  <p style=""font-size: 40px;"">pillow</p>
  <p style=""font-size: 16px;"">F = YES &nbsp;&nbsp;&nbsp; J = NO</p>
","f","html-keyboard-response","26","2.1.0","85800","F=YES, J=NO","y2fgphutqv","1","74","78","70","","","","","","lextale","true","false","","","","","","","",""
"3815","
  <p style=""font-size: 40px;"">shumble</p>
  <p style=""font-size: 16px;"">F = YES &nbsp;&nbsp;&nbsp; J = NO</p>
","j","html-keyboard-response","27","2.1.0","89616","F=YES, J=NO","y2fgphutqv","1","74","78","70","","","","","","lextale","false","false","","","","","","","",""
"656","
  <p style=""font-size: 40px;"">thirst</p>
  <p style=""font-size: 16px;"">F = YES &nbsp;&nbsp;&nbsp; J = NO</p>
","f","html-keyboard-response","28","2.1.0","90273","F=YES, J=NO","y2fgphutqv","1","74","78","70","","","","","","lextale","true","false","","","","","","","",""
"2055","
  <p style=""font-size: 40px;"">unsail</p>
  <p style=""font-size: 16px;"">F = YES &nbsp;&nbsp;&nbsp; J = NO</p>
","j","html-keyboard-response","29","2.1.0","92329","F=YES, J=NO","y2fgphutqv","1","74","78","70","","","","","","lextale","false","false","","","","","","","",""
"1839","
  <p style=""font-size: 40px;"">rifle</p>
  <p style=""font-size: 16px;"">F = YES &nbsp;&nbsp;&nbsp; J = NO</p>
","f","html-keyboard-response","30","2.1.0","94169","F=YES, J=NO","y2fgphutqv","1","74","78","70","","","","","","lextale","true","false","","","","","","","",""
"2472","
  <p style=""font-size: 40px;"">mush</p>
  <p style=""font-size: 16px;"">F = YES &nbsp;&nbsp;&nbsp; J = NO</p>
","f","html-keyboard-response","31","2.1.0","96641","F=YES, J=NO","y2fgphutqv","1","74","78","70","","","","","","lextale","false","false","","","","","","","",""
"959","
  <p style=""font-size: 40px;"">drench</p>
  <p style=""font-size: 16px;"">F = YES &nbsp;&nbsp;&nbsp; J = NO</p>
","f","html-keyboard-response","32","2.1.0","97600","F=YES, J=NO","y2fgphutqv","1","74","78","70","","","","","","lextale","true","false","","","","","","","",""
"2655","
  <p style=""font-size: 40px;"">snirt</p>
  <p style=""font-size: 16px;"">F = YES &nbsp;&nbsp;&nbsp; J = NO</p>
","j","html-keyboard-response","33","2.1.0","100256","F=YES, J=NO","y2fgphutqv","1","74","78","70","","","","","","lextale","false","false","","","","","","","",""
"647","
  <p style=""font-size: 40px;"">bitter</p>
  <p style=""font-size: 16px;"">F = YES &nbsp;&nbsp;&nbsp; J = NO</p>
","f","html-keyboard-response","34","2.1.0","100904","F=YES, J=NO","y2fgphutqv","1","74","78","70","","","","","","lextale","true","false","","","","","","","",""
"1328","
  <p style=""font-size: 40px;"">pliff</p>
  <p style=""font-size: 16px;"">F = YES &nbsp;&nbsp;&nbsp; J = NO</p>
","j","html-keyboard-response","35","2.1.0","102232","F=YES, J=NO","y2fgphutqv","1","74","78","70","","","","","","lextale","false","false","","","","","","","",""
"592","
  <p style=""font-size: 40px;"">tablet</p>
  <p style=""font-size: 16px;"">F = YES &nbsp;&nbsp;&nbsp; J = NO</p>
","f","html-keyboard-response","36","2.1.0","102825","F=YES, J=NO","y2fgphutqv","1","74","78","70","","","","","","lextale","true","false","","","","","","","",""
"847","
  <p style=""font-size: 40px;"">glimmer</p>
  <p style=""font-size: 16px;"">F = YES &nbsp;&nbsp;&nbsp; J = NO</p>
","f","html-keyboard-response","37","2.1.0","103673","F=YES, J=NO","y2fgphutqv","1","74","78","70","","","","","","lextale","true","false","","","","","","","",""
"1072","
  <p style=""font-size: 40px;"">slink</p>
  <p style=""font-size: 16px;"">F = YES &nbsp;&nbsp;&nbsp; J = NO</p>
","f","html-keyboard-response","38","2.1.0","104745","F=YES, J=NO","y2fgphutqv","1","74","78","70","","","","","","lextale","true","false","","","","","","","",""
"911","
  <p style=""font-size: 40px;"">clever</p>
  <p style=""font-size: 16px;"">F = YES &nbsp;&nbsp;&nbsp; J = NO</p>
","f","html-keyboard-response","39","2.1.0","105657","F=YES, J=NO","y2fgphutqv","1","74","78","70","","","","","","lextale","true","false","","","","","","","",""
"2335","
  <p style=""font-size: 40px;"">grum</p>
  <p style=""font-size: 16px;"">F = YES &nbsp;&nbsp;&nbsp; J = NO</p>
","j","html-keyboard-response","40","2.1.0","107993","F=YES, J=NO","y2fgphutqv","1","74","78","70","","","","","","lextale","false","false","","","","","","","",""
"767","
  <p style=""font-size: 40px;"">string</p>
  <p style=""font-size: 16px;"">F = YES &nbsp;&nbsp;&nbsp; J = NO</p>
","f","html-keyboard-response","41","2.1.0","108761","F=YES, J=NO","y2fgphutqv","1","74","78","70","","","","","","lextale","true","false","","","","","","","",""
"1655","
  <p style=""font-size: 40px;"">plim</p>
  <p style=""font-size: 16px;"">F = YES &nbsp;&nbsp;&nbsp; J = NO</p>
","f","html-keyboard-response","42","2.1.0","110416","F=YES, J=NO","y2fgphutqv","1","74","78","70","","","","","","lextale","false","false","","","","","","","",""
"648","
  <p style=""font-size: 40px;"">cable</p>
  <p style=""font-size: 16px;"">F = YES &nbsp;&nbsp;&nbsp; J = NO</p>
","f","html-keyboard-response","43","2.1.0","111064","F=YES, J=NO","y2fgphutqv","1","74","78","70","","","","","","lextale","true","false","","","","","","","",""
"1679","
  <p style=""font-size: 40px;"">shrivel</p>
  <p style=""font-size: 16px;"">F = YES &nbsp;&nbsp;&nbsp; J = NO</p>
","j","html-keyboard-response","44","2.1.0","112744","F=YES, J=NO","y2fgphutqv","1","74","78","70","","","","","","lextale","true","false","","","","","","","",""
"1207","
  <p style=""font-size: 40px;"">tarnish</p>
  <p style=""font-size: 16px;"">F = YES &nbsp;&nbsp;&nbsp; J = NO</p>
","f","html-keyboard-response","45","2.1.0","113952","F=YES, J=NO","y2fgphutqv","1","74","78","70","","","","","","lextale","true","false","","","","","","","",""
"2768","
  <p style=""font-size: 40px;"">blim</p>
  <p style=""font-size: 16px;"">F = YES &nbsp;&nbsp;&nbsp; J = NO</p>
","j","html-keyboard-response","46","2.1.0","116720","F=YES, J=NO","y2fgphutqv","1","74","78","70","","","","","","lextale","false","false","","","","","","","",""
"1455","
  <p style=""font-size: 40px;"">stifle</p>
  <p style=""font-size: 16px;"">F = YES &nbsp;&nbsp;&nbsp; J = NO</p>
","j","html-keyboard-response","47","2.1.0","118176","F=YES, J=NO","y2fgphutqv","1","74","78","70","","","","","","lextale","true","false","","","","","","","",""
"1855","
  <p style=""font-size: 40px;"">bint</p>
  <p style=""font-size: 16px;"">F = YES &nbsp;&nbsp;&nbsp; J = NO</p>
","j","html-keyboard-response","48","2.1.0","120032","F=YES, J=NO","y2fgphutqv","1","74","78","70","","","","","","lextale","false","false","","","","","","","",""
"784","
  <p style=""font-size: 40px;"">purple</p>
  <p style=""font-size: 16px;"">F = YES &nbsp;&nbsp;&nbsp; J = NO</p>
","f","html-keyboard-response","49","2.1.0","120817","F=YES, J=NO","y2fgphutqv","1","74","78","70","","","","","","lextale","true","false","","","","","","","",""
"983","
  <p style=""font-size: 40px;"">wriggle</p>
  <p style=""font-size: 16px;"">F = YES &nbsp;&nbsp;&nbsp; J = NO</p>
","f","html-keyboard-response","50","2.1.0","121801","F=YES, J=NO","y2fgphutqv","1","74","78","70","","","","","","lextale","true","false","","","","","","","",""
"1176","
  <p style=""font-size: 40px;"">mangle</p>
  <p style=""font-size: 16px;"">F = YES &nbsp;&nbsp;&nbsp; J = NO</p>
","j","html-keyboard-response","51","2.1.0","122977","F=YES, J=NO","y2fgphutqv","1","74","78","70","","","","","","lextale","true","false","","","","","","","",""
"1599","
  <p style=""font-size: 40px;"">shramp</p>
  <p style=""font-size: 16px;"">F = YES &nbsp;&nbsp;&nbsp; J = NO</p>
","f","html-keyboard-response","52","2.1.0","124576","F=YES, J=NO","y2fgphutqv","1","74","78","70","","","","","","lextale","false","false","","","","","","","",""
"1055","
  <p style=""font-size: 40px;"">flirt</p>
  <p style=""font-size: 16px;"">F = YES &nbsp;&nbsp;&nbsp; J = NO</p>
","f","html-keyboard-response","53","2.1.0","125632","F=YES, J=NO","y2fgphutqv","1","74","78","70","","","","","","lextale","true","false","","","","","","","",""
"1112","
  <p style=""font-size: 40px;"">frip</p>
  <p style=""font-size: 16px;"">F = YES &nbsp;&nbsp;&nbsp; J = NO</p>
","j","html-keyboard-response","54","2.1.0","126745","F=YES, J=NO","y2fgphutqv","1","74","78","70","","","","","","lextale","false","false","","","","","","","",""
"2175","
  <p style=""font-size: 40px;"">tangle</p>
  <p style=""font-size: 16px;"">F = YES &nbsp;&nbsp;&nbsp; J = NO</p>
","f","html-keyboard-response","55","2.1.0","128921","F=YES, J=NO","y2fgphutqv","1","74","78","70","","","","","","lextale","true","false","","","","","","","",""
"1159","
  <p style=""font-size: 40px;"">crumble</p>
  <p style=""font-size: 16px;"">F = YES &nbsp;&nbsp;&nbsp; J = NO</p>
","f","html-keyboard-response","56","2.1.0","130080","F=YES, J=NO","y2fgphutqv","1","74","78","70","","","","","","lextale","true","false","","","","","","","",""
"991","
  <p style=""font-size: 40px;"">wrinkle</p>
  <p style=""font-size: 16px;"">F = YES &nbsp;&nbsp;&nbsp; J = NO</p>
","f","html-keyboard-response","57","2.1.0","131072","F=YES, J=NO","y2fgphutqv","1","74","78","70","","","","","","lextale","true","false","","","","","","","",""
"1256","
  <p style=""font-size: 40px;"">slumb</p>
  <p style=""font-size: 16px;"">F = YES &nbsp;&nbsp;&nbsp; J = NO</p>
","j","html-keyboard-response","58","2.1.0","132329","F=YES, J=NO","y2fgphutqv","1","74","78","70","","","","","","lextale","false","false","","","","","","","",""
"848","
  <p style=""font-size: 40px;"">jungle</p>
  <p style=""font-size: 16px;"">F = YES &nbsp;&nbsp;&nbsp; J = NO</p>
","f","html-keyboard-response","59","2.1.0","133177","F=YES, J=NO","y2fgphutqv","1","74","78","70","","","","","","lextale","true","false","","","","","","","",""
"5520","
  <p style=""font-size: 40px;"">frolick</p>
  <p style=""font-size: 16px;"">F = YES &nbsp;&nbsp;&nbsp; J = NO</p>
","j","html-keyboard-response","60","2.1.0","138697","F=YES, J=NO","y2fgphutqv","1","74","78","70","","","","","","lextale","false","false","","","","","","","",""
"4110","
      <h2>LexTALE Test Completed</h2>
      <p>Your LexTALE vocabulary score is: <strong>74%</strong></p>
      <p>Press any key to continue.</p>
    "," ","html-keyboard-response","61","2.1.0","142808","F=YES, J=NO","y2fgphutqv","1","74","78","70","","","","","","","","","","","","","","","",""
"7128","
    <div style=""max-width: 800px; margin: auto; text-align: left;"">
      <h2>Break Time</h2>
      <p>You have completed the first part of the study.</p>
      <p>You may take a short <strong>30-second break</strong> before continuing.</p>
      <p>When you’re ready, press any key to continue to the final task.</p>
    </div>
  "," ","html-keyboard-response","62","2.1.0","149937","F=YES, J=NO","y2fgphutqv","1","74","78","70","","","","","","","","","","","","","","","",""
"15864","
    <div style=""max-width: 800px; margin: auto; text-align: left;"">
      <h2>Part 2: Lexical Decision Task</h2>
      <p>You will now begin the second part of the study.</p>
      <p>Each trial will follow this sequence:</p>
      <ul>
        <li>A fixation cross (+) appears at the center of the screen.</li>
        <li>You will hear a short beep followed by a spoken word.</li>
        <li>A written word will appear briefly on the screen.</li>
      </ul>
      <p>Your task is to judge whether the <strong>written word</strong> is a real English word.</p>
      <p style=""margin-top: 1em;""><strong>Key responses:</strong></p>
      <ul>
        <li><strong>F</strong> = YES (real English word)</li>
        <li><strong>J</strong> = NO (not a real English word)</li>
      </ul>
      <p>Please respond as quickly and accurately as you can.</p>
      <p style=""margin-top: 2em;"">Press any key to continue.</p>
    </div>
  "," ","html-keyboard-response","63","2.1.0","165801","F=YES, J=NO","y2fgphutqv","1","74","78","70","","","","","","","","","","","","","","","",""
"0","
    <div style=""max-width: 800px; margin: auto; text-align: left;"">
      <h2>Before You Begin</h2>
      <p>Make sure your sound is turned on.</p>
      <p>You will hear audio during each trial, but your decision should be based only on the <strong>written word</strong> you see on the screen.</p>
      <p><strong>Reminder:</strong></p>
      <ul>
        <li><strong>F</strong> = YES (real English word)</li>
        <li><strong>J</strong> = NO (not a real English word)</li>
      </ul>
      <p style=""margin-top: 2em;"">Press any key when you are ready to begin.</p>
    </div>
  ","v","html-keyboard-response","64","2.1.0","165802","F=YES, J=NO","y2fgphutqv","1","74","78","70","","","","","","","","","","","","","","","",""
"3694","
    <div style=""max-width: 800px; margin: auto; text-align: left;"">
      <h2>Part 2: Practice Trials</h2>
      <p>You will now complete a few <strong>practice trials</strong> to get familiar with the task.</p>
      <p>These trials are <strong>not scored</strong> and are only to help you get used to the format.</p>
      <p style=""margin-top: 2em;"">Press any key to begin.</p>
    </div>
  "," ","html-keyboard-response","65","2.1.0","169497","F=YES, J=NO","y2fgphutqv","1","74","78","70","","","","","","","","","","","","","","","",""
"2551","<p>Starting practice block 1 of 2. Press any key to continue.</p>"," ","html-keyboard-response","66","2.1.0","172048","F=YES, J=NO","y2fgphutqv","1","74","78","70","","","","","","","","","","","","","","","",""
"null","<p style=""font-size: 50px;"">+</p>","null","html-keyboard-response","67","2.1.0","172351","F=YES, J=NO","y2fgphutqv","1","74","78","70","","","","","","","","","","","","","","","",""
"null","audio/beep-329314.mp3","null","audio-keyboard-response","68","2.1.0","173886","F=YES, J=NO","y2fgphutqv","1","74","78","70","","","","","","","","","","","","","","","",""
"null","audio/hawk1.wav","null","audio-keyboard-response","69","2.1.0","174505","F=YES, J=NO","y2fgphutqv","1","74","78","70","","","","","","","","","","","","","","","",""
"null","
          <p id=""word"" style=""font-size: 40px;"">ostach</p>
          <p style=""font-size: 16px;"">F = YES &nbsp;&nbsp;&nbsp; J = NO</p>
        ","null","html-keyboard-response","70","2.1.0","176015","F=YES, J=NO","y2fgphutqv","1","74","78","70","","","","","","","","","ostach","hawk1","pseudoword","pseudoword","j","false","",""
"null","<p style=""font-size: 50px;"">+</p>","null","html-keyboard-response","71","2.1.0","176326","F=YES, J=NO","y2fgphutqv","1","74","78","70","","","","","","","","","","","","","","","",""
"null","audio/beep-329314.mp3","null","audio-keyboard-response","72","2.1.0","177866","F=YES, J=NO","y2fgphutqv","1","74","78","70","","","","","","","","","","","","","","","",""
"null","audio/hotel1.wav","null","audio-keyboard-response","73","2.1.0","178545","F=YES, J=NO","y2fgphutqv","1","74","78","70","","","","","","","","","","","","","","","",""
"374","
          <p id=""word"" style=""font-size: 40px;"">flanter</p>
          <p style=""font-size: 16px;"">F = YES &nbsp;&nbsp;&nbsp; J = NO</p>
        ","f","html-keyboard-response","74","2.1.0","178921","F=YES, J=NO","y2fgphutqv","1","74","78","70","","","","","","","","","flanter","hotel1","pseudoword","pseudoword","j","false","",""
"null","<p style=""font-size: 50px;"">+</p>","null","html-keyboard-response","75","2.1.0","179234","F=YES, J=NO","y2fgphutqv","1","74","78","70","","","","","","","","","","","","","","","",""
"null","audio/beep-329314.mp3","null","audio-keyboard-response","76","2.1.0","180766","F=YES, J=NO","y2fgphutqv","1","74","78","70","","","","","","","","","","","","","","","",""
"null","audio/stain.wav","null","audio-keyboard-response","77","2.1.0","181405","F=YES, J=NO","y2fgphutqv","1","74","78","70","","","","","","","","","","","","","","","",""
"514","
          <p id=""word"" style=""font-size: 40px;"">rumpsied</p>
          <p style=""font-size: 16px;"">F = YES &nbsp;&nbsp;&nbsp; J = NO</p>
        ","f","html-keyboard-response","78","2.1.0","181920","F=YES, J=NO","y2fgphutqv","1","74","78","70","","","","","","","","","rumpsied","stain","pseudoword","pseudoword","j","false","",""
"null","<p style=""font-size: 50px;"">+</p>","null","html-keyboard-response","79","2.1.0","182227","F=YES, J=NO","y2fgphutqv","1","74","78","70","","","","","","","","","","","","","","","",""
"null","audio/beep-329314.mp3","null","audio-keyboard-response","80","2.1.0","183766","F=YES, J=NO","y2fgphutqv","1","74","78","70","","","","","","","","","","","","","","","",""
"null","audio/bomb1.wav","null","audio-keyboard-response","81","2.1.0","184205","F=YES, J=NO","y2fgphutqv","1","74","78","70","","","","","","","","","","","","","","","",""
"426","
          <p id=""word"" style=""font-size: 40px;"">clean</p>
          <p style=""font-size: 16px;"">F = YES &nbsp;&nbsp;&nbsp; J = NO</p>
        ","j","html-keyboard-response","82","2.1.0","184633","F=YES, J=NO","y2fgphutqv","1","74","78","70","","","","","","","","","clean","bomb1","filler","filler","f","false","",""
"null","<p style=""font-size: 50px;"">+</p>","null","html-keyboard-response","83","2.1.0","184938","F=YES, J=NO","y2fgphutqv","1","74","78","70","","","","","","","","","","","","","","","",""
"null","audio/beep-329314.mp3","null","audio-keyboard-response","84","2.1.0","186466","F=YES, J=NO","y2fgphutqv","1","74","78","70","","","","","","","","","","","","","","","",""
"null","audio/alarm1.wav","null","audio-keyboard-response","85","2.1.0","187045","F=YES, J=NO","y2fgphutqv","1","74","78","70","","","","","","","","","","","","","","","",""
"282","
          <p id=""word"" style=""font-size: 40px;"">lock</p>
          <p style=""font-size: 16px;"">F = YES &nbsp;&nbsp;&nbsp; J = NO</p>
        ","f","html-keyboard-response","86","2.1.0","187328","F=YES, J=NO","y2fgphutqv","1","74","78","70","","","","","","","","","lock","alarm1","filler","filler","f","true","",""
"null","<p style=""font-size: 50px;"">+</p>","null","html-keyboard-response","87","2.1.0","187630","F=YES, J=NO","y2fgphutqv","1","74","78","70","","","","","","","","","","","","","","","",""
"null","audio/beep-329314.mp3","null","audio-keyboard-response","88","2.1.0","189166","F=YES, J=NO","y2fgphutqv","1","74","78","70","","","","","","","","","","","","","","","",""
"null","audio/emotion.wav","null","audio-keyboard-response","89","2.1.0","189965","F=YES, J=NO","y2fgphutqv","1","74","78","70","","","","","","","","","","","","","","","",""
"499","
          <p id=""word"" style=""font-size: 40px;"">devering</p>
          <p style=""font-size: 16px;"">F = YES &nbsp;&nbsp;&nbsp; J = NO</p>
        ","f","html-keyboard-response","90","2.1.0","190465","F=YES, J=NO","y2fgphutqv","1","74","78","70","","","","","","","","","devering","emotion","pseudoword","pseudoword","j","false","",""
"null","<p style=""font-size: 50px;"">+</p>","null","html-keyboard-response","91","2.1.0","190766","F=YES, J=NO","y2fgphutqv","1","74","78","70","","","","","","","","","","","","","","","",""
"null","audio/beep-329314.mp3","null","audio-keyboard-response","92","2.1.0","192305","F=YES, J=NO","y2fgphutqv","1","74","78","70","","","","","","","","","","","","","","","",""
"null","audio/scar.wav","null","audio-keyboard-response","93","2.1.0","192885","F=YES, J=NO","y2fgphutqv","1","74","78","70","","","","","","","","","","","","","","","",""
"490","
          <p id=""word"" style=""font-size: 40px;"">adelineate</p>
          <p style=""font-size: 16px;"">F = YES &nbsp;&nbsp;&nbsp; J = NO</p>
        ","j","html-keyboard-response","94","2.1.0","193376","F=YES, J=NO","y2fgphutqv","1","74","78","70","","","","","","","","","adelineate","scar","pseudoword","pseudoword","j","true","",""
"null","<p style=""font-size: 50px;"">+</p>","null","html-keyboard-response","95","2.1.0","193692","F=YES, J=NO","y2fgphutqv","1","74","78","70","","","","","","","","","","","","","","","",""
"null","audio/beep-329314.mp3","null","audio-keyboard-response","96","2.1.0","195226","F=YES, J=NO","y2fgphutqv","1","74","78","70","","","","","","","","","","","","","","","",""
"null","audio/bridge.wav","null","audio-keyboard-response","97","2.1.0","195765","F=YES, J=NO","y2fgphutqv","1","74","78","70","","","","","","","","","","","","","","","",""
"234","
          <p id=""word"" style=""font-size: 40px;"">crack</p>
          <p style=""font-size: 16px;"">F = YES &nbsp;&nbsp;&nbsp; J = NO</p>
        ","f","html-keyboard-response","98","2.1.0","196001","F=YES, J=NO","y2fgphutqv","1","74","78","70","","","","","","","","","crack","bridge","filler","filler","f","true","",""
"null","<p style=""font-size: 50px;"">+</p>","null","html-keyboard-response","99","2.1.0","196311","F=YES, J=NO","y2fgphutqv","1","74","78","70","","","","","","","","","","","","","","","",""
"null","audio/beep-329314.mp3","null","audio-keyboard-response","100","2.1.0","197846","F=YES, J=NO","y2fgphutqv","1","74","78","70","","","","","","","","","","","","","","","",""
"null","audio/kettle1.wav","null","audio-keyboard-response","101","2.1.0","198386","F=YES, J=NO","y2fgphutqv","1","74","78","70","","","","","","","","","","","","","","","",""
"662","
          <p id=""word"" style=""font-size: 40px;"">wrap</p>
          <p style=""font-size: 16px;"">F = YES &nbsp;&nbsp;&nbsp; J = NO</p>
        ","f","html-keyboard-response","102","2.1.0","199049","F=YES, J=NO","y2fgphutqv","1","74","78","70","","","","","","","","","wrap","kettle1","filler","filler","f","true","",""
"null","<p style=""font-size: 50px;"">+</p>","null","html-keyboard-response","103","2.1.0","199356","F=YES, J=NO","y2fgphutqv","1","74","78","70","","","","","","","","","","","","","","","",""
"null","audio/beep-329314.mp3","null","audio-keyboard-response","104","2.1.0","200886","F=YES, J=NO","y2fgphutqv","1","74","78","70","","","","","","","","","","","","","","","",""
"null","audio/pattern.wav","null","audio-keyboard-response","105","2.1.0","201385","F=YES, J=NO","y2fgphutqv","1","74","78","70","","","","","","","","","","","","","","","",""
"566","
          <p id=""word"" style=""font-size: 40px;"">tug</p>
          <p style=""font-size: 16px;"">F = YES &nbsp;&nbsp;&nbsp; J = NO</p>
        ","j","html-keyboard-response","106","2.1.0","201952","F=YES, J=NO","y2fgphutqv","1","74","78","70","","","","","","","","","tug","pattern","filler","filler","f","false","",""
"null","<p style=""font-size: 50px;"">+</p>","null","html-keyboard-response","107","2.1.0","202268","F=YES, J=NO","y2fgphutqv","1","74","78","70","","","","","","","","","","","","","","","",""
"null","audio/beep-329314.mp3","null","audio-keyboard-response","108","2.1.0","203805","F=YES, J=NO","y2fgphutqv","1","74","78","70","","","","","","","","","","","","","","","",""
"null","audio/baby.wav","null","audio-keyboard-response","109","2.1.0","204265","F=YES, J=NO","y2fgphutqv","1","74","78","70","","","","","","","","","","","","","","","",""
"390","
          <p id=""word"" style=""font-size: 40px;"">lift</p>
          <p style=""font-size: 16px;"">F = YES &nbsp;&nbsp;&nbsp; J = NO</p>
        ","f","html-keyboard-response","110","2.1.0","204656","F=YES, J=NO","y2fgphutqv","1","74","78","70","","","","","","","","","lift","baby","filler","filler","f","true","",""
"null","<p style=""font-size: 50px;"">+</p>","null","html-keyboard-response","111","2.1.0","204967","F=YES, J=NO","y2fgphutqv","1","74","78","70","","","","","","","","","","","","","","","",""
"null","audio/beep-329314.mp3","null","audio-keyboard-response","112","2.1.0","206505","F=YES, J=NO","y2fgphutqv","1","74","78","70","","","","","","","","","","","","","","","",""
"null","audio/breath.wav","null","audio-keyboard-response","113","2.1.0","207065","F=YES, J=NO","y2fgphutqv","1","74","78","70","","","","","","","","","","","","","","","",""
"374","
          <p id=""word"" style=""font-size: 40px;"">twets</p>
          <p style=""font-size: 16px;"">F = YES &nbsp;&nbsp;&nbsp; J = NO</p>
        ","f","html-keyboard-response","114","2.1.0","207440","F=YES, J=NO","y2fgphutqv","1","74","78","70","","","","","","","","","twets","breath","pseudoword","pseudoword","j","false","",""
"1431","<p>Starting practice block 2 of 2. Press any key to continue.</p>"," ","html-keyboard-response","115","2.1.0","208872","F=YES, J=NO","y2fgphutqv","1","74","78","70","","","","","","","","","","","","","","","",""
"null","<p style=""font-size: 50px;"">+</p>","null","html-keyboard-response","116","2.1.0","209174","F=YES, J=NO","y2fgphutqv","1","74","78","70","","","","","","","","","","","","","","","",""
"null","audio/beep-329314.mp3","null","audio-keyboard-response","117","2.1.0","210705","F=YES, J=NO","y2fgphutqv","1","74","78","70","","","","","","","","","","","","","","","",""
"null","audio/camera1.wav","null","audio-keyboard-response","118","2.1.0","211245","F=YES, J=NO","y2fgphutqv","1","74","78","70","","","","","","","","","","","","","","","",""
"402","
          <p id=""word"" style=""font-size: 40px;"">stir</p>
          <p style=""font-size: 16px;"">F = YES &nbsp;&nbsp;&nbsp; J = NO</p>
        ","f","html-keyboard-response","119","2.1.0","211648","F=YES, J=NO","y2fgphutqv","1","74","78","70","","","","","","","","","stir","camera1","filler","filler","f","true","",""
"null","<p style=""font-size: 50px;"">+</p>","null","html-keyboard-response","120","2.1.0","211958","F=YES, J=NO","y2fgphutqv","1","74","78","70","","","","","","","","","","","","","","","",""
"null","audio/beep-329314.mp3","null","audio-keyboard-response","121","2.1.0","213486","F=YES, J=NO","y2fgphutqv","1","74","78","70","","","","","","","","","","","","","","","",""
"null","audio/pig.wav","null","audio-keyboard-response","122","2.1.0","213905","F=YES, J=NO","y2fgphutqv","1","74","78","70","","","","","","","","","","","","","","","",""
"486","
          <p id=""word"" style=""font-size: 40px;"">tirlike</p>
          <p style=""font-size: 16px;"">F = YES &nbsp;&nbsp;&nbsp; J = NO</p>
        ","f","html-keyboard-response","123","2.1.0","214392","F=YES, J=NO","y2fgphutqv","1","74","78","70","","","","","","","","","tirlike","pig","pseudoword","pseudoword","j","false","",""
"null","<p style=""font-size: 50px;"">+</p>","null","html-keyboard-response","124","2.1.0","214697","F=YES, J=NO","y2fgphutqv","1","74","78","70","","","","","","","","","","","","","","","",""
"null","audio/beep-329314.mp3","null","audio-keyboard-response","125","2.1.0","216225","F=YES, J=NO","y2fgphutqv","1","74","78","70","","","","","","","","","","","","","","","",""
"null","audio/belief.wav","null","audio-keyboard-response","126","2.1.0","217005","F=YES, J=NO","y2fgphutqv","1","74","78","70","","","","","","","","","","","","","","","",""
"298","
          <p id=""word"" style=""font-size: 40px;"">read</p>
          <p style=""font-size: 16px;"">F = YES &nbsp;&nbsp;&nbsp; J = NO</p>
        ","j","html-keyboard-response","127","2.1.0","217304","F=YES, J=NO","y2fgphutqv","1","74","78","70","","","","","","","","","read","belief","filler","filler","f","false","",""
"null","<p style=""font-size: 50px;"">+</p>","null","html-keyboard-response","128","2.1.0","217609","F=YES, J=NO","y2fgphutqv","1","74","78","70","","","","","","","","","","","","","","","",""
"null","audio/beep-329314.mp3","null","audio-keyboard-response","129","2.1.0","219145","F=YES, J=NO","y2fgphutqv","1","74","78","70","","","","","","","","","","","","","","","",""
"null","audio/test1.wav","null","audio-keyboard-response","130","2.1.0","219745","F=YES, J=NO","y2fgphutqv","1","74","78","70","","","","","","","","","","","","","","","",""
"622","
          <p id=""word"" style=""font-size: 40px;"">twopch</p>
          <p style=""font-size: 16px;"">F = YES &nbsp;&nbsp;&nbsp; J = NO</p>
        ","j","html-keyboard-response","131","2.1.0","220368","F=YES, J=NO","y2fgphutqv","1","74","78","70","","","","","","","","","twopch","test1","pseudoword","pseudoword","j","true","",""
"null","<p style=""font-size: 50px;"">+</p>","null","html-keyboard-response","132","2.1.0","220670","F=YES, J=NO","y2fgphutqv","1","74","78","70","","","","","","","","","","","","","","","",""
"null","audio/beep-329314.mp3","null","audio-keyboard-response","133","2.1.0","222205","F=YES, J=NO","y2fgphutqv","1","74","78","70","","","","","","","","","","","","","","","",""
"null","audio/pain1.wav","null","audio-keyboard-response","134","2.1.0","222645","F=YES, J=NO","y2fgphutqv","1","74","78","70","","","","","","","","","","","","","","","",""
"434","
          <p id=""word"" style=""font-size: 40px;"">tritted</p>
          <p style=""font-size: 16px;"">F = YES &nbsp;&nbsp;&nbsp; J = NO</p>
        ","f","html-keyboard-response","135","2.1.0","223080","F=YES, J=NO","y2fgphutqv","1","74","78","70","","","","","","","","","tritted","pain1","pseudoword","pseudoword","j","false","",""
"null","<p style=""font-size: 50px;"">+</p>","null","html-keyboard-response","136","2.1.0","223395","F=YES, J=NO","y2fgphutqv","1","74","78","70","","","","","","","","","","","","","","","",""
"null","audio/beep-329314.mp3","null","audio-keyboard-response","137","2.1.0","224925","F=YES, J=NO","y2fgphutqv","1","74","78","70","","","","","","","","","","","","","","","",""
"null","audio/foot1.wav","null","audio-keyboard-response","138","2.1.0","225545","F=YES, J=NO","y2fgphutqv","1","74","78","70","","","","","","","","","","","","","","","",""
"502","
          <p id=""word"" style=""font-size: 40px;"">thrutt</p>
          <p style=""font-size: 16px;"">F = YES &nbsp;&nbsp;&nbsp; J = NO</p>
        ","f","html-keyboard-response","139","2.1.0","226048","F=YES, J=NO","y2fgphutqv","1","74","78","70","","","","","","","","","thrutt","foot1","pseudoword","pseudoword","j","false","",""
"null","<p style=""font-size: 50px;"">+</p>","null","html-keyboard-response","140","2.1.0","226351","F=YES, J=NO","y2fgphutqv","1","74","78","70","","","","","","","","","","","","","","","",""
"null","audio/beep-329314.mp3","null","audio-keyboard-response","141","2.1.0","227885","F=YES, J=NO","y2fgphutqv","1","74","78","70","","","","","","","","","","","","","","","",""
"null","audio/fence.wav","null","audio-keyboard-response","142","2.1.0","228565","F=YES, J=NO","y2fgphutqv","1","74","78","70","","","","","","","","","","","","","","","",""
"490","
          <p id=""word"" style=""font-size: 40px;"">trim</p>
          <p style=""font-size: 16px;"">F = YES &nbsp;&nbsp;&nbsp; J = NO</p>
        ","f","html-keyboard-response","143","2.1.0","229056","F=YES, J=NO","y2fgphutqv","1","74","78","70","","","","","","","","","trim","fence","filler","filler","f","true","",""
"null","<p style=""font-size: 50px;"">+</p>","null","html-keyboard-response","144","2.1.0","229358","F=YES, J=NO","y2fgphutqv","1","74","78","70","","","","","","","","","","","","","","","",""
"null","audio/beep-329314.mp3","null","audio-keyboard-response","145","2.1.0","230886","F=YES, J=NO","y2fgphutqv","1","74","78","70","","","","","","","","","","","","","","","",""
"null","audio/gossip1.wav","null","audio-keyboard-response","146","2.1.0","231565","F=YES, J=NO","y2fgphutqv","1","74","78","70","","","","","","","","","","","","","","","",""
"818","
          <p id=""word"" style=""font-size: 40px;"">camerish</p>
          <p style=""font-size: 16px;"">F = YES &nbsp;&nbsp;&nbsp; J = NO</p>
        ","f","html-keyboard-response","147","2.1.0","232384","F=YES, J=NO","y2fgphutqv","1","74","78","70","","","","","","","","","camerish","gossip1","pseudoword","pseudoword","j","false","",""
"null","<p style=""font-size: 50px;"">+</p>","null","html-keyboard-response","148","2.1.0","232691","F=YES, J=NO","y2fgphutqv","1","74","78","70","","","","","","","","","","","","","","","",""
"null","audio/beep-329314.mp3","null","audio-keyboard-response","149","2.1.0","234226","F=YES, J=NO","y2fgphutqv","1","74","78","70","","","","","","","","","","","","","","","",""
"null","audio/novel.wav","null","audio-keyboard-response","150","2.1.0","234705","F=YES, J=NO","y2fgphutqv","1","74","78","70","","","","","","","","","","","","","","","",""
"null","
          <p id=""word"" style=""font-size: 40px;"">type</p>
          <p style=""font-size: 16px;"">F = YES &nbsp;&nbsp;&nbsp; J = NO</p>
        ","null","html-keyboard-response","151","2.1.0","236222","F=YES, J=NO","y2fgphutqv","1","74","78","70","","","","","","","","","type","novel","filler","filler","f","false","",""
"null","<p style=""font-size: 50px;"">+</p>","null","html-keyboard-response","152","2.1.0","236530","F=YES, J=NO","y2fgphutqv","1","74","78","70","","","","","","","","","","","","","","","",""
"null","audio/beep-329314.mp3","null","audio-keyboard-response","153","2.1.0","238066","F=YES, J=NO","y2fgphutqv","1","74","78","70","","","","","","","","","","","","","","","",""
"null","audio/bottle.wav","null","audio-keyboard-response","154","2.1.0","238606","F=YES, J=NO","y2fgphutqv","1","74","78","70","","","","","","","","","","","","","","","",""
"498","
          <p id=""word"" style=""font-size: 40px;"">watch</p>
          <p style=""font-size: 16px;"">F = YES &nbsp;&nbsp;&nbsp; J = NO</p>
        ","j","html-keyboard-response","155","2.1.0","239105","F=YES, J=NO","y2fgphutqv","1","74","78","70","","","","","","","","","watch","bottle","filler","filler","f","false","",""
"null","<p style=""font-size: 50px;"">+</p>","null","html-keyboard-response","156","2.1.0","239412","F=YES, J=NO","y2fgphutqv","1","74","78","70","","","","","","","","","","","","","","","",""
"null","audio/beep-329314.mp3","null","audio-keyboard-response","157","2.1.0","240945","F=YES, J=NO","y2fgphutqv","1","74","78","70","","","","","","","","","","","","","","","",""
"null","audio/trout1.wav","null","audio-keyboard-response","158","2.1.0","241566","F=YES, J=NO","y2fgphutqv","1","74","78","70","","","","","","","","","","","","","","","",""
"706","
          <p id=""word"" style=""font-size: 40px;"">spimt</p>
          <p style=""font-size: 16px;"">F = YES &nbsp;&nbsp;&nbsp; J = NO</p>
        ","j","html-keyboard-response","159","2.1.0","242272","F=YES, J=NO","y2fgphutqv","1","74","78","70","","","","","","","","","spimt","trout1","pseudoword","pseudoword","j","true","",""
"null","<p style=""font-size: 50px;"">+</p>","null","html-keyboard-response","160","2.1.0","242579","F=YES, J=NO","y2fgphutqv","1","74","78","70","","","","","","","","","","","","","","","",""
"null","audio/beep-329314.mp3","null","audio-keyboard-response","161","2.1.0","244106","F=YES, J=NO","y2fgphutqv","1","74","78","70","","","","","","","","","","","","","","","",""
"null","audio/account1.wav","null","audio-keyboard-response","162","2.1.0","244845","F=YES, J=NO","y2fgphutqv","1","74","78","70","","","","","","","","","","","","","","","",""
"338","
          <p id=""word"" style=""font-size: 40px;"">paint</p>
          <p style=""font-size: 16px;"">F = YES &nbsp;&nbsp;&nbsp; J = NO</p>
        ","f","html-keyboard-response","163","2.1.0","245184","F=YES, J=NO","y2fgphutqv","1","74","78","70","","","","","","","","","paint","account1","filler","filler","f","true","",""
"14703","
    <div style=""max-width: 800px; margin: auto; text-align: left;"">
      <h2>Part 2: Main Trials</h2>
      <p>Great job on the practice trials!</p>
      <p>You will now begin the <strong>main set of trials</strong>.</p>
      <p>Remember your key assignments:</p>
      <ul>
        <li><strong>F</strong> = YES (real English word)</li>
        <li><strong>J</strong> = NO (not a real English word)</li>
      </ul>
      <p>Try to respond as <strong>quickly and accurately</strong> as possible.</p>
      <p style=""margin-top: 2em;"">Press any key to begin the main trials.</p>
    </div>
  "," ","html-keyboard-response","164","2.1.0","259888","F=YES, J=NO","y2fgphutqv","1","74","78","70","","","","","","","","","","","","","","","",""
"1327","<p>Starting main block 1 of 8. Press any key to continue.</p>"," ","html-keyboard-response","165","2.1.0","261216","F=YES, J=NO","y2fgphutqv","1","74","78","70","","","","","","","","","","","","","","","",""
"null","<p style=""font-size: 50px;"">+</p>","null","html-keyboard-response","166","2.1.0","261525","F=YES, J=NO","y2fgphutqv","1","74","78","70","","","","","","","","","","","","","","","",""
"null","audio/beep-329314.mp3","null","audio-keyboard-response","167","2.1.0","263045","F=YES, J=NO","y2fgphutqv","1","74","78","70","","","","","","","","","","","","","","","",""
"null","audio/pine.wav","null","audio-keyboard-response","168","2.1.0","263515","F=YES, J=NO","y2fgphutqv","1","74","78","70","","","","","","","","","","","","","","","",""
"708","
          <p id=""word"" style=""font-size: 40px;"">crebble</p>
          <p style=""font-size: 16px;"">F = YES &nbsp;&nbsp;&nbsp; J = NO</p>
        ","j","html-keyboard-response","169","2.1.0","264224","F=YES, J=NO","y2fgphutqv","1","74","78","70","","","","","","","","","crebble","pine","pseudoword","pseudoword","j","true","",""
"null","<p style=""font-size: 50px;"">+</p>","null","html-keyboard-response","170","2.1.0","264540","F=YES, J=NO","y2fgphutqv","1","74","78","70","","","","","","","","","","","","","","","",""
"null","audio/beep-329314.mp3","null","audio-keyboard-response","171","2.1.0","266066","F=YES, J=NO","y2fgphutqv","1","74","78","70","","","","","","","","","","","","","","","",""
"null","audio/ankle1.wav","null","audio-keyboard-response","172","2.1.0","266595","F=YES, J=NO","y2fgphutqv","1","74","78","70","","","","","","","","","","","","","","","",""
"636","
          <p id=""word"" style=""font-size: 40px;"">kick</p>
          <p style=""font-size: 16px;"">F = YES &nbsp;&nbsp;&nbsp; J = NO</p>
        ","f","html-keyboard-response","173","2.1.0","267232","F=YES, J=NO","y2fgphutqv","1","74","78","70","","","","","","","","","kick","ankle1","filler","filler","f","true","",""
"null","<p style=""font-size: 50px;"">+</p>","null","html-keyboard-response","174","2.1.0","267541","F=YES, J=NO","y2fgphutqv","1","74","78","70","","","","","","","","","","","","","","","",""
"null","audio/beep-329314.mp3","null","audio-keyboard-response","175","2.1.0","269065","F=YES, J=NO","y2fgphutqv","1","74","78","70","","","","","","","","","","","","","","","",""
"null","audio/age1.wav","null","audio-keyboard-response","176","2.1.0","269775","F=YES, J=NO","y2fgphutqv","1","74","78","70","","","","","","","","","","","","","","","",""
"632","
          <p id=""word"" style=""font-size: 40px;"">lachry</p>
          <p style=""font-size: 16px;"">F = YES &nbsp;&nbsp;&nbsp; J = NO</p>
        ","j","html-keyboard-response","177","2.1.0","270409","F=YES, J=NO","y2fgphutqv","1","74","78","70","","","","","","","","","lachry","age1","pseudoword","pseudoword","j","true","",""
"null","<p style=""font-size: 50px;"">+</p>","null","html-keyboard-response","178","2.1.0","270716","F=YES, J=NO","y2fgphutqv","1","74","78","70","","","","","","","","","","","","","","","",""
"null","audio/beep-329314.mp3","null","audio-keyboard-response","179","2.1.0","272246","F=YES, J=NO","y2fgphutqv","1","74","78","70","","","","","","","","","","","","","","","",""
"null","audio/relief.wav","null","audio-keyboard-response","180","2.1.0","272895","F=YES, J=NO","y2fgphutqv","1","74","78","70","","","","","","","","","","","","","","","",""
"664","
          <p id=""word"" style=""font-size: 40px;"">bring</p>
          <p style=""font-size: 16px;"">F = YES &nbsp;&nbsp;&nbsp; J = NO</p>
        ","j","html-keyboard-response","181","2.1.0","273560","F=YES, J=NO","y2fgphutqv","1","74","78","70","","","","","","","","","bring","relief","metaphor","experimental","f","false","",""
"null","<p style=""font-size: 50px;"">+</p>","null","html-keyboard-response","182","2.1.0","273863","F=YES, J=NO","y2fgphutqv","1","74","78","70","","","","","","","","","","","","","","","",""
"null","audio/beep-329314.mp3","null","audio-keyboard-response","183","2.1.0","275385","F=YES, J=NO","y2fgphutqv","1","74","78","70","","","","","","","","","","","","","","","",""
"null","audio/golf1.wav","null","audio-keyboard-response","184","2.1.0","275955","F=YES, J=NO","y2fgphutqv","1","74","78","70","","","","","","","","","","","","","","","",""
"748","
          <p id=""word"" style=""font-size: 40px;"">drabble</p>
          <p style=""font-size: 16px;"">F = YES &nbsp;&nbsp;&nbsp; J = NO</p>
        ","j","html-keyboard-response","185","2.1.0","276704","F=YES, J=NO","y2fgphutqv","1","74","78","70","","","","","","","","","drabble","golf1","pseudoword","pseudoword","j","true","",""
"null","<p style=""font-size: 50px;"">+</p>","null","html-keyboard-response","186","2.1.0","277009","F=YES, J=NO","y2fgphutqv","1","74","78","70","","","","","","","","","","","","","","","",""
"null","audio/beep-329314.mp3","null","audio-keyboard-response","187","2.1.0","278545","F=YES, J=NO","y2fgphutqv","1","74","78","70","","","","","","","","","","","","","","","",""
"null","audio/birth1.wav","null","audio-keyboard-response","188","2.1.0","279095","F=YES, J=NO","y2fgphutqv","1","74","78","70","","","","","","","","","","","","","","","",""
"416","
          <p id=""word"" style=""font-size: 40px;"">drop</p>
          <p style=""font-size: 16px;"">F = YES &nbsp;&nbsp;&nbsp; J = NO</p>
        ","f","html-keyboard-response","189","2.1.0","279512","F=YES, J=NO","y2fgphutqv","1","74","78","70","","","","","","","","","drop","birth1","unrelated","experimental","f","true","",""
"null","<p style=""font-size: 50px;"">+</p>","null","html-keyboard-response","190","2.1.0","279815","F=YES, J=NO","y2fgphutqv","1","74","78","70","","","","","","","","","","","","","","","",""
"null","audio/beep-329314.mp3","null","audio-keyboard-response","191","2.1.0","281345","F=YES, J=NO","y2fgphutqv","1","74","78","70","","","","","","","","","","","","","","","",""
"null","audio/effort.wav","null","audio-keyboard-response","192","2.1.0","282135","F=YES, J=NO","y2fgphutqv","1","74","78","70","","","","","","","","","","","","","","","",""
"648","
          <p id=""word"" style=""font-size: 40px;"">whonk</p>
          <p style=""font-size: 16px;"">F = YES &nbsp;&nbsp;&nbsp; J = NO</p>
        ","j","html-keyboard-response","193","2.1.0","282785","F=YES, J=NO","y2fgphutqv","1","74","78","70","","","","","","","","","whonk","effort","pseudoword","pseudoword","j","true","",""
"null","<p style=""font-size: 50px;"">+</p>","null","html-keyboard-response","194","2.1.0","283092","F=YES, J=NO","y2fgphutqv","1","74","78","70","","","","","","","","","","","","","","","",""
"null","audio/beep-329314.mp3","null","audio-keyboard-response","195","2.1.0","284625","F=YES, J=NO","y2fgphutqv","1","74","78","70","","","","","","","","","","","","","","","",""
"null","audio/budget1.wav","null","audio-keyboard-response","196","2.1.0","285395","F=YES, J=NO","y2fgphutqv","1","74","78","70","","","","","","","","","","","","","","","",""
"860","
          <p id=""word"" style=""font-size: 40px;"">sulist</p>
          <p style=""font-size: 16px;"">F = YES &nbsp;&nbsp;&nbsp; J = NO</p>
        ","j","html-keyboard-response","197","2.1.0","286256","F=YES, J=NO","y2fgphutqv","1","74","78","70","","","","","","","","","sulist","budget1","pseudoword","pseudoword","j","true","",""
"null","<p style=""font-size: 50px;"">+</p>","null","html-keyboard-response","198","2.1.0","286561","F=YES, J=NO","y2fgphutqv","1","74","78","70","","","","","","","","","","","","","","","",""
"null","audio/beep-329314.mp3","null","audio-keyboard-response","199","2.1.0","288085","F=YES, J=NO","y2fgphutqv","1","74","78","70","","","","","","","","","","","","","","","",""
"null","audio/cloud1.wav","null","audio-keyboard-response","200","2.1.0","288635","F=YES, J=NO","y2fgphutqv","1","74","78","70","","","","","","","","","","","","","","","",""
"1084","
          <p id=""word"" style=""font-size: 40px;"">brotant</p>
          <p style=""font-size: 16px;"">F = YES &nbsp;&nbsp;&nbsp; J = NO</p>
        ","f","html-keyboard-response","201","2.1.0","289720","F=YES, J=NO","y2fgphutqv","1","74","78","70","","","","","","","","","brotant","cloud1","pseudoword","pseudoword","j","false","",""
"null","<p style=""font-size: 50px;"">+</p>","null","html-keyboard-response","202","2.1.0","290033","F=YES, J=NO","y2fgphutqv","1","74","78","70","","","","","","","","","","","","","","","",""
"null","audio/beep-329314.mp3","null","audio-keyboard-response","203","2.1.0","291566","F=YES, J=NO","y2fgphutqv","1","74","78","70","","","","","","","","","","","","","","","",""
"null","audio/dome.wav","null","audio-keyboard-response","204","2.1.0","291995","F=YES, J=NO","y2fgphutqv","1","74","78","70","","","","","","","","","","","","","","","",""
"1420","
          <p id=""word"" style=""font-size: 40px;"">scrupliness</p>
          <p style=""font-size: 16px;"">F = YES &nbsp;&nbsp;&nbsp; J = NO</p>
        ","j","html-keyboard-response","205","2.1.0","293417","F=YES, J=NO","y2fgphutqv","1","74","78","70","","","","","","","","","scrupliness","dome","pseudoword","pseudoword","j","true","",""
"null","<p style=""font-size: 50px;"">+</p>","null","html-keyboard-response","206","2.1.0","293727","F=YES, J=NO","y2fgphutqv","1","74","78","70","","","","","","","","","","","","","","","",""
"null","audio/beep-329314.mp3","null","audio-keyboard-response","207","2.1.0","295265","F=YES, J=NO","y2fgphutqv","1","74","78","70","","","","","","","","","","","","","","","",""
"null","audio/cottage1.wav","null","audio-keyboard-response","208","2.1.0","296075","F=YES, J=NO","y2fgphutqv","1","74","78","70","","","","","","","","","","","","","","","",""
"668","
          <p id=""word"" style=""font-size: 40px;"">release</p>
          <p style=""font-size: 16px;"">F = YES &nbsp;&nbsp;&nbsp; J = NO</p>
        ","f","html-keyboard-response","209","2.1.0","296744","F=YES, J=NO","y2fgphutqv","1","74","78","70","","","","","","","","","release","cottage1","unrelated","experimental","f","true","",""
"null","<p style=""font-size: 50px;"">+</p>","null","html-keyboard-response","210","2.1.0","297057","F=YES, J=NO","y2fgphutqv","1","74","78","70","","","","","","","","","","","","","","","",""
"null","audio/beep-329314.mp3","null","audio-keyboard-response","211","2.1.0","298585","F=YES, J=NO","y2fgphutqv","1","74","78","70","","","","","","","","","","","","","","","",""
"null","audio/news.wav","null","audio-keyboard-response","212","2.1.0","299235","F=YES, J=NO","y2fgphutqv","1","74","78","70","","","","","","","","","","","","","","","",""
"965","
          <p id=""word"" style=""font-size: 40px;"">digest</p>
          <p style=""font-size: 16px;"">F = YES &nbsp;&nbsp;&nbsp; J = NO</p>
        ","j","html-keyboard-response","213","2.1.0","300201","F=YES, J=NO","y2fgphutqv","1","74","78","70","","","","","","","","","digest","news","metaphor","experimental","f","false","",""
"null","<p style=""font-size: 50px;"">+</p>","null","html-keyboard-response","214","2.1.0","300515","F=YES, J=NO","y2fgphutqv","1","74","78","70","","","","","","","","","","","","","","","",""
"null","audio/beep-329314.mp3","null","audio-keyboard-response","215","2.1.0","302046","F=YES, J=NO","y2fgphutqv","1","74","78","70","","","","","","","","","","","","","","","",""
"null","audio/devil1.wav","null","audio-keyboard-response","216","2.1.0","302456","F=YES, J=NO","y2fgphutqv","1","74","78","70","","","","","","","","","","","","","","","",""
"543","
          <p id=""word"" style=""font-size: 40px;"">carry</p>
          <p style=""font-size: 16px;"">F = YES &nbsp;&nbsp;&nbsp; J = NO</p>
        ","f","html-keyboard-response","217","2.1.0","303000","F=YES, J=NO","y2fgphutqv","1","74","78","70","","","","","","","","","carry","devil1","unrelated","experimental","f","true","",""
"null","<p style=""font-size: 50px;"">+</p>","null","html-keyboard-response","218","2.1.0","303301","F=YES, J=NO","y2fgphutqv","1","74","78","70","","","","","","","","","","","","","","","",""
"null","audio/beep-329314.mp3","null","audio-keyboard-response","219","2.1.0","304825","F=YES, J=NO","y2fgphutqv","1","74","78","70","","","","","","","","","","","","","","","",""
"null","audio/mile1.wav","null","audio-keyboard-response","220","2.1.0","305315","F=YES, J=NO","y2fgphutqv","1","74","78","70","","","","","","","","","","","","","","","",""
"901","
          <p id=""word"" style=""font-size: 40px;"">writch</p>
          <p style=""font-size: 16px;"">F = YES &nbsp;&nbsp;&nbsp; J = NO</p>
        ","j","html-keyboard-response","221","2.1.0","306217","F=YES, J=NO","y2fgphutqv","1","74","78","70","","","","","","","","","writch","mile1","pseudoword","pseudoword","j","true","",""
"null","<p style=""font-size: 50px;"">+</p>","null","html-keyboard-response","222","2.1.0","306522","F=YES, J=NO","y2fgphutqv","1","74","78","70","","","","","","","","","","","","","","","",""
"null","audio/beep-329314.mp3","null","audio-keyboard-response","223","2.1.0","308046","F=YES, J=NO","y2fgphutqv","1","74","78","70","","","","","","","","","","","","","","","",""
"null","audio/haste1.wav","null","audio-keyboard-response","224","2.1.0","308615","F=YES, J=NO","y2fgphutqv","1","74","78","70","","","","","","","","","","","","","","","",""
"null","
          <p id=""word"" style=""font-size: 40px;"">coraconate</p>
          <p style=""font-size: 16px;"">F = YES &nbsp;&nbsp;&nbsp; J = NO</p>
        ","null","html-keyboard-response","225","2.1.0","310128","F=YES, J=NO","y2fgphutqv","1","74","78","70","","","","","","","","","coraconate","haste1","pseudoword","pseudoword","j","false","",""
"null","<p style=""font-size: 50px;"">+</p>","null","html-keyboard-response","226","2.1.0","310437","F=YES, J=NO","y2fgphutqv","1","74","78","70","","","","","","","","","","","","","","","",""
"null","audio/beep-329314.mp3","null","audio-keyboard-response","227","2.1.0","311965","F=YES, J=NO","y2fgphutqv","1","74","78","70","","","","","","","","","","","","","","","",""
"null","audio/foe1.wav","null","audio-keyboard-response","228","2.1.0","312475","F=YES, J=NO","y2fgphutqv","1","74","78","70","","","","","","","","","","","","","","","",""
"549","
          <p id=""word"" style=""font-size: 40px;"">conquer</p>
          <p style=""font-size: 16px;"">F = YES &nbsp;&nbsp;&nbsp; J = NO</p>
        ","f","html-keyboard-response","229","2.1.0","313025","F=YES, J=NO","y2fgphutqv","1","74","78","70","","","","","","","","","conquer","foe1","literal","experimental","f","true","",""
"11823","<p>Excellent! You have finished block 1 of 8.</p>
                     <p>Feel free to take a 30 second break.</p>
                     <p>Press any key when you're ready to continue.</p>"," ","html-keyboard-response","230","2.1.0","324848","F=YES, J=NO","y2fgphutqv","1","74","78","70","","","","","","","","","","","","","","","",""
"4983","<p>Starting main block 2 of 8. Press any key to continue.</p>"," ","html-keyboard-response","231","2.1.0","329832","F=YES, J=NO","y2fgphutqv","1","74","78","70","","","","","","","","","","","","","","","",""
"null","<p style=""font-size: 50px;"">+</p>","null","html-keyboard-response","232","2.1.0","330137","F=YES, J=NO","y2fgphutqv","1","74","78","70","","","","","","","","","","","","","","","",""
"null","audio/beep-329314.mp3","null","audio-keyboard-response","233","2.1.0","331665","F=YES, J=NO","y2fgphutqv","1","74","78","70","","","","","","","","","","","","","","","",""
"null","audio/train.wav","null","audio-keyboard-response","234","2.1.0","332155","F=YES, J=NO","y2fgphutqv","1","74","78","70","","","","","","","","","","","","","","","",""
"548","
          <p id=""word"" style=""font-size: 40px;"">catch</p>
          <p style=""font-size: 16px;"">F = YES &nbsp;&nbsp;&nbsp; J = NO</p>
        ","f","html-keyboard-response","235","2.1.0","332704","F=YES, J=NO","y2fgphutqv","1","74","78","70","","","","","","","","","catch","train","metaphor","experimental","f","true","",""
"null","<p style=""font-size: 50px;"">+</p>","null","html-keyboard-response","236","2.1.0","333018","F=YES, J=NO","y2fgphutqv","1","74","78","70","","","","","","","","","","","","","","","",""
"null","audio/beep-329314.mp3","null","audio-keyboard-response","237","2.1.0","334545","F=YES, J=NO","y2fgphutqv","1","74","78","70","","","","","","","","","","","","","","","",""
"null","audio/battle1.wav","null","audio-keyboard-response","238","2.1.0","335135","F=YES, J=NO","y2fgphutqv","1","74","78","70","","","","","","","","","","","","","","","",""
"488","
          <p id=""word"" style=""font-size: 40px;"">boil</p>
          <p style=""font-size: 16px;"">F = YES &nbsp;&nbsp;&nbsp; J = NO</p>
        ","f","html-keyboard-response","239","2.1.0","335624","F=YES, J=NO","y2fgphutqv","1","74","78","70","","","","","","","","","boil","battle1","filler","filler","f","true","",""
"null","<p style=""font-size: 50px;"">+</p>","null","html-keyboard-response","240","2.1.0","335935","F=YES, J=NO","y2fgphutqv","1","74","78","70","","","","","","","","","","","","","","","",""
"null","audio/beep-329314.mp3","null","audio-keyboard-response","241","2.1.0","337465","F=YES, J=NO","y2fgphutqv","1","74","78","70","","","","","","","","","","","","","","","",""
"null","audio/theory1.wav","null","audio-keyboard-response","242","2.1.0","338115","F=YES, J=NO","y2fgphutqv","1","74","78","70","","","","","","","","","","","","","","","",""
"628","
          <p id=""word"" style=""font-size: 40px;"">construct</p>
          <p style=""font-size: 16px;"">F = YES &nbsp;&nbsp;&nbsp; J = NO</p>
        ","f","html-keyboard-response","243","2.1.0","338744","F=YES, J=NO","y2fgphutqv","1","74","78","70","","","","","","","","","construct","theory1","metaphor","experimental","f","true","",""
"null","<p style=""font-size: 50px;"">+</p>","null","html-keyboard-response","244","2.1.0","339048","F=YES, J=NO","y2fgphutqv","1","74","78","70","","","","","","","","","","","","","","","",""
"null","audio/beep-329314.mp3","null","audio-keyboard-response","245","2.1.0","340585","F=YES, J=NO","y2fgphutqv","1","74","78","70","","","","","","","","","","","","","","","",""
"null","audio/voice.wav","null","audio-keyboard-response","246","2.1.0","341375","F=YES, J=NO","y2fgphutqv","1","74","78","70","","","","","","","","","","","","","","","",""
"624","
          <p id=""word"" style=""font-size: 40px;"">grintle</p>
          <p style=""font-size: 16px;"">F = YES &nbsp;&nbsp;&nbsp; J = NO</p>
        ","j","html-keyboard-response","247","2.1.0","342000","F=YES, J=NO","y2fgphutqv","1","74","78","70","","","","","","","","","grintle","voice","pseudoword","pseudoword","j","true","",""
"null","<p style=""font-size: 50px;"">+</p>","null","html-keyboard-response","248","2.1.0","342316","F=YES, J=NO","y2fgphutqv","1","74","78","70","","","","","","","","","","","","","","","",""
"null","audio/beep-329314.mp3","null","audio-keyboard-response","249","2.1.0","343845","F=YES, J=NO","y2fgphutqv","1","74","78","70","","","","","","","","","","","","","","","",""
"null","audio/pain1.wav","null","audio-keyboard-response","250","2.1.0","344275","F=YES, J=NO","y2fgphutqv","1","74","78","70","","","","","","","","","","","","","","","",""
"501","
          <p id=""word"" style=""font-size: 40px;"">sell</p>
          <p style=""font-size: 16px;"">F = YES &nbsp;&nbsp;&nbsp; J = NO</p>
        ","f","html-keyboard-response","251","2.1.0","344776","F=YES, J=NO","y2fgphutqv","1","74","78","70","","","","","","","","","sell","pain1","unrelated","experimental","f","true","",""
"null","<p style=""font-size: 50px;"">+</p>","null","html-keyboard-response","252","2.1.0","345087","F=YES, J=NO","y2fgphutqv","1","74","78","70","","","","","","","","","","","","","","","",""
"null","audio/beep-329314.mp3","null","audio-keyboard-response","253","2.1.0","346625","F=YES, J=NO","y2fgphutqv","1","74","78","70","","","","","","","","","","","","","","","",""
"null","audio/desire.wav","null","audio-keyboard-response","254","2.1.0","347295","F=YES, J=NO","y2fgphutqv","1","74","78","70","","","","","","","","","","","","","","","",""
"632","
          <p id=""word"" style=""font-size: 40px;"">nophed</p>
          <p style=""font-size: 16px;"">F = YES &nbsp;&nbsp;&nbsp; J = NO</p>
        ","j","html-keyboard-response","255","2.1.0","347929","F=YES, J=NO","y2fgphutqv","1","74","78","70","","","","","","","","","nophed","desire","pseudoword","pseudoword","j","true","",""
"null","<p style=""font-size: 50px;"">+</p>","null","html-keyboard-response","256","2.1.0","348230","F=YES, J=NO","y2fgphutqv","1","74","78","70","","","","","","","","","","","","","","","",""
"null","audio/beep-329314.mp3","null","audio-keyboard-response","257","2.1.0","349766","F=YES, J=NO","y2fgphutqv","1","74","78","70","","","","","","","","","","","","","","","",""
"null","audio/inch1.wav","null","audio-keyboard-response","258","2.1.0","350355","F=YES, J=NO","y2fgphutqv","1","74","78","70","","","","","","","","","","","","","","","",""
"460","
          <p id=""word"" style=""font-size: 40px;"">lose</p>
          <p style=""font-size: 16px;"">F = YES &nbsp;&nbsp;&nbsp; J = NO</p>
        ","f","html-keyboard-response","259","2.1.0","350816","F=YES, J=NO","y2fgphutqv","1","74","78","70","","","","","","","","","lose","inch1","metaphor","experimental","f","true","",""
"null","<p style=""font-size: 50px;"">+</p>","null","html-keyboard-response","260","2.1.0","351130","F=YES, J=NO","y2fgphutqv","1","74","78","70","","","","","","","","","","","","","","","",""
"null","audio/beep-329314.mp3","null","audio-keyboard-response","261","2.1.0","352665","F=YES, J=NO","y2fgphutqv","1","74","78","70","","","","","","","","","","","","","","","",""
"null","audio/cash1.wav","null","audio-keyboard-response","262","2.1.0","353275","F=YES, J=NO","y2fgphutqv","1","74","78","70","","","","","","","","","","","","","","","",""
"916","
          <p id=""word"" style=""font-size: 40px;"">splear</p>
          <p style=""font-size: 16px;"">F = YES &nbsp;&nbsp;&nbsp; J = NO</p>
        ","j","html-keyboard-response","263","2.1.0","354192","F=YES, J=NO","y2fgphutqv","1","74","78","70","","","","","","","","","splear","cash1","pseudoword","pseudoword","j","true","",""
"null","<p style=""font-size: 50px;"">+</p>","null","html-keyboard-response","264","2.1.0","354507","F=YES, J=NO","y2fgphutqv","1","74","78","70","","","","","","","","","","","","","","","",""
"null","audio/beep-329314.mp3","null","audio-keyboard-response","265","2.1.0","356045","F=YES, J=NO","y2fgphutqv","1","74","78","70","","","","","","","","","","","","","","","",""
"null","audio/uncle1.wav","null","audio-keyboard-response","266","2.1.0","356696","F=YES, J=NO","y2fgphutqv","1","74","78","70","","","","","","","","","","","","","","","",""
"1032","
          <p id=""word"" style=""font-size: 40px;"">dramble</p>
          <p style=""font-size: 16px;"">F = YES &nbsp;&nbsp;&nbsp; J = NO</p>
        ","f","html-keyboard-response","267","2.1.0","357729","F=YES, J=NO","y2fgphutqv","1","74","78","70","","","","","","","","","dramble","uncle1","pseudoword","pseudoword","j","false","",""
"null","<p style=""font-size: 50px;"">+</p>","null","html-keyboard-response","268","2.1.0","358036","F=YES, J=NO","y2fgphutqv","1","74","78","70","","","","","","","","","","","","","","","",""
"null","audio/beep-329314.mp3","null","audio-keyboard-response","269","2.1.0","359566","F=YES, J=NO","y2fgphutqv","1","74","78","70","","","","","","","","","","","","","","","",""
"null","audio/plot1.wav","null","audio-keyboard-response","270","2.1.0","360155","F=YES, J=NO","y2fgphutqv","1","74","78","70","","","","","","","","","","","","","","","",""
"1029","
          <p id=""word"" style=""font-size: 40px;"">weave</p>
          <p style=""font-size: 16px;"">F = YES &nbsp;&nbsp;&nbsp; J = NO</p>
        ","f","html-keyboard-response","271","2.1.0","361185","F=YES, J=NO","y2fgphutqv","1","74","78","70","","","","","","","","","weave","plot1","metaphor","experimental","f","true","",""
"null","<p style=""font-size: 50px;"">+</p>","null","html-keyboard-response","272","2.1.0","361496","F=YES, J=NO","y2fgphutqv","1","74","78","70","","","","","","","","","","","","","","","",""
"null","audio/beep-329314.mp3","null","audio-keyboard-response","273","2.1.0","363025","F=YES, J=NO","y2fgphutqv","1","74","78","70","","","","","","","","","","","","","","","",""
"null","audio/alarm1.wav","null","audio-keyboard-response","274","2.1.0","363595","F=YES, J=NO","y2fgphutqv","1","74","78","70","","","","","","","","","","","","","","","",""
"796","
          <p id=""word"" style=""font-size: 40px;"">swetp</p>
          <p style=""font-size: 16px;"">F = YES &nbsp;&nbsp;&nbsp; J = NO</p>
        ","j","html-keyboard-response","275","2.1.0","364392","F=YES, J=NO","y2fgphutqv","1","74","78","70","","","","","","","","","swetp","alarm1","pseudoword","pseudoword","j","true","",""
"null","<p style=""font-size: 50px;"">+</p>","null","html-keyboard-response","276","2.1.0","364705","F=YES, J=NO","y2fgphutqv","1","74","78","70","","","","","","","","","","","","","","","",""
"null","audio/beep-329314.mp3","null","audio-keyboard-response","277","2.1.0","366245","F=YES, J=NO","y2fgphutqv","1","74","78","70","","","","","","","","","","","","","","","",""
"null","audio/mouth1.wav","null","audio-keyboard-response","278","2.1.0","366975","F=YES, J=NO","y2fgphutqv","1","74","78","70","","","","","","","","","","","","","","","",""
"489","
          <p id=""word"" style=""font-size: 40px;"">close</p>
          <p style=""font-size: 16px;"">F = YES &nbsp;&nbsp;&nbsp; J = NO</p>
        ","f","html-keyboard-response","279","2.1.0","367465","F=YES, J=NO","y2fgphutqv","1","74","78","70","","","","","","","","","close","mouth1","literal","experimental","f","true","",""
"null","<p style=""font-size: 50px;"">+</p>","null","html-keyboard-response","280","2.1.0","367766","F=YES, J=NO","y2fgphutqv","1","74","78","70","","","","","","","","","","","","","","","",""
"null","audio/beep-329314.mp3","null","audio-keyboard-response","281","2.1.0","369305","F=YES, J=NO","y2fgphutqv","1","74","78","70","","","","","","","","","","","","","","","",""
"null","audio/ego.wav","null","audio-keyboard-response","282","2.1.0","370016","F=YES, J=NO","y2fgphutqv","1","74","78","70","","","","","","","","","","","","","","","",""
"1024","
          <p id=""word"" style=""font-size: 40px;"">bruite</p>
          <p style=""font-size: 16px;"">F = YES &nbsp;&nbsp;&nbsp; J = NO</p>
        ","j","html-keyboard-response","283","2.1.0","371041","F=YES, J=NO","y2fgphutqv","1","74","78","70","","","","","","","","","bruite","ego","pseudoword","pseudoword","j","true","",""
"null","<p style=""font-size: 50px;"">+</p>","null","html-keyboard-response","284","2.1.0","371347","F=YES, J=NO","y2fgphutqv","1","74","78","70","","","","","","","","","","","","","","","",""
"null","audio/beep-329314.mp3","null","audio-keyboard-response","285","2.1.0","372886","F=YES, J=NO","y2fgphutqv","1","74","78","70","","","","","","","","","","","","","","","",""
"null","audio/purpose.wav","null","audio-keyboard-response","286","2.1.0","373715","F=YES, J=NO","y2fgphutqv","1","74","78","70","","","","","","","","","","","","","","","",""
"837","
          <p id=""word"" style=""font-size: 40px;"">whigm</p>
          <p style=""font-size: 16px;"">F = YES &nbsp;&nbsp;&nbsp; J = NO</p>
        ","j","html-keyboard-response","287","2.1.0","374553","F=YES, J=NO","y2fgphutqv","1","74","78","70","","","","","","","","","whigm","purpose","pseudoword","pseudoword","j","true","",""
"null","<p style=""font-size: 50px;"">+</p>","null","html-keyboard-response","288","2.1.0","374861","F=YES, J=NO","y2fgphutqv","1","74","78","70","","","","","","","","","","","","","","","",""
"null","audio/beep-329314.mp3","null","audio-keyboard-response","289","2.1.0","376385","F=YES, J=NO","y2fgphutqv","1","74","78","70","","","","","","","","","","","","","","","",""
"null","audio/meal.wav","null","audio-keyboard-response","290","2.1.0","376995","F=YES, J=NO","y2fgphutqv","1","74","78","70","","","","","","","","","","","","","","","",""
"1180","
          <p id=""word"" style=""font-size: 40px;"">gallite</p>
          <p style=""font-size: 16px;"">F = YES &nbsp;&nbsp;&nbsp; J = NO</p>
        ","f","html-keyboard-response","291","2.1.0","378176","F=YES, J=NO","y2fgphutqv","1","74","78","70","","","","","","","","","gallite","meal","pseudoword","pseudoword","j","false","",""
"null","<p style=""font-size: 50px;"">+</p>","null","html-keyboard-response","292","2.1.0","378482","F=YES, J=NO","y2fgphutqv","1","74","78","70","","","","","","","","","","","","","","","",""
"null","audio/beep-329314.mp3","null","audio-keyboard-response","293","2.1.0","380005","F=YES, J=NO","y2fgphutqv","1","74","78","70","","","","","","","","","","","","","","","",""
"null","audio/grass.wav","null","audio-keyboard-response","294","2.1.0","380655","F=YES, J=NO","y2fgphutqv","1","74","78","70","","","","","","","","","","","","","","","",""
"960","
          <p id=""word"" style=""font-size: 40px;"">milames</p>
          <p style=""font-size: 16px;"">F = YES &nbsp;&nbsp;&nbsp; J = NO</p>
        ","j","html-keyboard-response","295","2.1.0","381616","F=YES, J=NO","y2fgphutqv","1","74","78","70","","","","","","","","","milames","grass","pseudoword","pseudoword","j","true","",""
"4799","<p>Excellent! You have finished block 2 of 8.</p>
                     <p>Feel free to take a 30 second break.</p>
                     <p>Press any key when you're ready to continue.</p>"," ","html-keyboard-response","296","2.1.0","386416","F=YES, J=NO","y2fgphutqv","1","74","78","70","","","","","","","","","","","","","","","",""
"912","<p>Starting main block 3 of 8. Press any key to continue.</p>"," ","html-keyboard-response","297","2.1.0","387329","F=YES, J=NO","y2fgphutqv","1","74","78","70","","","","","","","","","","","","","","","",""
"null","<p style=""font-size: 50px;"">+</p>","null","html-keyboard-response","298","2.1.0","387638","F=YES, J=NO","y2fgphutqv","1","74","78","70","","","","","","","","","","","","","","","",""
"null","audio/beep-329314.mp3","null","audio-keyboard-response","299","2.1.0","389165","F=YES, J=NO","y2fgphutqv","1","74","78","70","","","","","","","","","","","","","","","",""
"null","audio/life1.wav","null","audio-keyboard-response","300","2.1.0","389875","F=YES, J=NO","y2fgphutqv","1","74","78","70","","","","","","","","","","","","","","","",""
"1076","
          <p id=""word"" style=""font-size: 40px;"">flimch</p>
          <p style=""font-size: 16px;"">F = YES &nbsp;&nbsp;&nbsp; J = NO</p>
        ","f","html-keyboard-response","301","2.1.0","390952","F=YES, J=NO","y2fgphutqv","1","74","78","70","","","","","","","","","flimch","life1","pseudoword","pseudoword","j","false","",""
"null","<p style=""font-size: 50px;"">+</p>","null","html-keyboard-response","302","2.1.0","391263","F=YES, J=NO","y2fgphutqv","1","74","78","70","","","","","","","","","","","","","","","",""
"null","audio/beep-329314.mp3","null","audio-keyboard-response","303","2.1.0","392785","F=YES, J=NO","y2fgphutqv","1","74","78","70","","","","","","","","","","","","","","","",""
"null","audio/revenue1.wav","null","audio-keyboard-response","304","2.1.0","393455","F=YES, J=NO","y2fgphutqv","1","74","78","70","","","","","","","","","","","","","","","",""
"552","
          <p id=""word"" style=""font-size: 40px;"">grow</p>
          <p style=""font-size: 16px;"">F = YES &nbsp;&nbsp;&nbsp; J = NO</p>
        ","f","html-keyboard-response","305","2.1.0","394009","F=YES, J=NO","y2fgphutqv","1","74","78","70","","","","","","","","","grow","revenue1","metaphor","experimental","f","true","",""
"null","<p style=""font-size: 50px;"">+</p>","null","html-keyboard-response","306","2.1.0","394315","F=YES, J=NO","y2fgphutqv","1","74","78","70","","","","","","","","","","","","","","","",""
"null","audio/beep-329314.mp3","null","audio-keyboard-response","307","2.1.0","395845","F=YES, J=NO","y2fgphutqv","1","74","78","70","","","","","","","","","","","","","","","",""
"null","audio/terrain.wav","null","audio-keyboard-response","308","2.1.0","396475","F=YES, J=NO","y2fgphutqv","1","74","78","70","","","","","","","","","","","","","","","",""
"605","
          <p id=""word"" style=""font-size: 40px;"">twist</p>
          <p style=""font-size: 16px;"">F = YES &nbsp;&nbsp;&nbsp; J = NO</p>
        ","f","html-keyboard-response","309","2.1.0","397081","F=YES, J=NO","y2fgphutqv","1","74","78","70","","","","","","","","","twist","terrain","filler","filler","f","true","",""
"null","<p style=""font-size: 50px;"">+</p>","null","html-keyboard-response","310","2.1.0","397383","F=YES, J=NO","y2fgphutqv","1","74","78","70","","","","","","","","","","","","","","","",""
"null","audio/beep-329314.mp3","null","audio-keyboard-response","311","2.1.0","398905","F=YES, J=NO","y2fgphutqv","1","74","78","70","","","","","","","","","","","","","","","",""
"null","audio/tax1.wav","null","audio-keyboard-response","312","2.1.0","399656","F=YES, J=NO","y2fgphutqv","1","74","78","70","","","","","","","","","","","","","","","",""
"776","
          <p id=""word"" style=""font-size: 40px;"">snate</p>
          <p style=""font-size: 16px;"">F = YES &nbsp;&nbsp;&nbsp; J = NO</p>
        ","j","html-keyboard-response","313","2.1.0","400433","F=YES, J=NO","y2fgphutqv","1","74","78","70","","","","","","","","","snate","tax1","pseudoword","pseudoword","j","true","",""
"null","<p style=""font-size: 50px;"">+</p>","null","html-keyboard-response","314","2.1.0","400745","F=YES, J=NO","y2fgphutqv","1","74","78","70","","","","","","","","","","","","","","","",""
"null","audio/beep-329314.mp3","null","audio-keyboard-response","315","2.1.0","402285","F=YES, J=NO","y2fgphutqv","1","74","78","70","","","","","","","","","","","","","","","",""
"null","audio/client1.wav","null","audio-keyboard-response","316","2.1.0","402975","F=YES, J=NO","y2fgphutqv","1","74","78","70","","","","","","","","","","","","","","","",""
"1056","
          <p id=""word"" style=""font-size: 40px;"">droothe</p>
          <p style=""font-size: 16px;"">F = YES &nbsp;&nbsp;&nbsp; J = NO</p>
        ","f","html-keyboard-response","317","2.1.0","404032","F=YES, J=NO","y2fgphutqv","1","74","78","70","","","","","","","","","droothe","client1","pseudoword","pseudoword","j","false","",""
"null","<p style=""font-size: 50px;"">+</p>","null","html-keyboard-response","318","2.1.0","404347","F=YES, J=NO","y2fgphutqv","1","74","78","70","","","","","","","","","","","","","","","",""
"null","audio/beep-329314.mp3","null","audio-keyboard-response","319","2.1.0","405886","F=YES, J=NO","y2fgphutqv","1","74","78","70","","","","","","","","","","","","","","","",""
"null","audio/winter.wav","null","audio-keyboard-response","320","2.1.0","406455","F=YES, J=NO","y2fgphutqv","1","74","78","70","","","","","","","","","","","","","","","",""
"576","
          <p id=""word"" style=""font-size: 40px;"">expose</p>
          <p style=""font-size: 16px;"">F = YES &nbsp;&nbsp;&nbsp; J = NO</p>
        ","f","html-keyboard-response","321","2.1.0","407032","F=YES, J=NO","y2fgphutqv","1","74","78","70","","","","","","","","","expose","winter","unrelated","experimental","f","true","",""
"null","<p style=""font-size: 50px;"">+</p>","null","html-keyboard-response","322","2.1.0","407339","F=YES, J=NO","y2fgphutqv","1","74","78","70","","","","","","","","","","","","","","","",""
"null","audio/beep-329314.mp3","null","audio-keyboard-response","323","2.1.0","408865","F=YES, J=NO","y2fgphutqv","1","74","78","70","","","","","","","","","","","","","","","",""
"null","audio/bush1.wav","null","audio-keyboard-response","324","2.1.0","409376","F=YES, J=NO","y2fgphutqv","1","74","78","70","","","","","","","","","","","","","","","",""
"544","
          <p id=""word"" style=""font-size: 40px;"">run</p>
          <p style=""font-size: 16px;"">F = YES &nbsp;&nbsp;&nbsp; J = NO</p>
        ","f","html-keyboard-response","325","2.1.0","409921","F=YES, J=NO","y2fgphutqv","1","74","78","70","","","","","","","","","run","bush1","unrelated","experimental","f","true","",""
"null","<p style=""font-size: 50px;"">+</p>","null","html-keyboard-response","326","2.1.0","410221","F=YES, J=NO","y2fgphutqv","1","74","78","70","","","","","","","","","","","","","","","",""
"null","audio/beep-329314.mp3","null","audio-keyboard-response","327","2.1.0","411746","F=YES, J=NO","y2fgphutqv","1","74","78","70","","","","","","","","","","","","","","","",""
"null","audio/cinema1.wav","null","audio-keyboard-response","328","2.1.0","412515","F=YES, J=NO","y2fgphutqv","1","74","78","70","","","","","","","","","","","","","","","",""
"660","
          <p id=""word"" style=""font-size: 40px;"">murple</p>
          <p style=""font-size: 16px;"">F = YES &nbsp;&nbsp;&nbsp; J = NO</p>
        ","j","html-keyboard-response","329","2.1.0","413176","F=YES, J=NO","y2fgphutqv","1","74","78","70","","","","","","","","","murple","cinema1","pseudoword","pseudoword","j","true","",""
"null","<p style=""font-size: 50px;"">+</p>","null","html-keyboard-response","330","2.1.0","413486","F=YES, J=NO","y2fgphutqv","1","74","78","70","","","","","","","","","","","","","","","",""
"null","audio/beep-329314.mp3","null","audio-keyboard-response","331","2.1.0","415026","F=YES, J=NO","y2fgphutqv","1","74","78","70","","","","","","","","","","","","","","","",""
"null","audio/arm.wav","null","audio-keyboard-response","332","2.1.0","415715","F=YES, J=NO","y2fgphutqv","1","74","78","70","","","","","","","","","","","","","","","",""
"748","
          <p id=""word"" style=""font-size: 40px;"">pigne</p>
          <p style=""font-size: 16px;"">F = YES &nbsp;&nbsp;&nbsp; J = NO</p>
        ","j","html-keyboard-response","333","2.1.0","416464","F=YES, J=NO","y2fgphutqv","1","74","78","70","","","","","","","","","pigne","arm","pseudoword","pseudoword","j","true","",""
"null","<p style=""font-size: 50px;"">+</p>","null","html-keyboard-response","334","2.1.0","416770","F=YES, J=NO","y2fgphutqv","1","74","78","70","","","","","","","","","","","","","","","",""
"null","audio/beep-329314.mp3","null","audio-keyboard-response","335","2.1.0","418305","F=YES, J=NO","y2fgphutqv","1","74","78","70","","","","","","","","","","","","","","","",""
"null","audio/weight1.wav","null","audio-keyboard-response","336","2.1.0","418875","F=YES, J=NO","y2fgphutqv","1","74","78","70","","","","","","","","","","","","","","","",""
"452","
          <p id=""word"" style=""font-size: 40px;"">crimsh</p>
          <p style=""font-size: 16px;"">F = YES &nbsp;&nbsp;&nbsp; J = NO</p>
        ","f","html-keyboard-response","337","2.1.0","419328","F=YES, J=NO","y2fgphutqv","1","74","78","70","","","","","","","","","crimsh","weight1","pseudoword","pseudoword","j","false","",""
"null","<p style=""font-size: 50px;"">+</p>","null","html-keyboard-response","338","2.1.0","419634","F=YES, J=NO","y2fgphutqv","1","74","78","70","","","","","","","","","","","","","","","",""
"null","audio/beep-329314.mp3","null","audio-keyboard-response","339","2.1.0","421165","F=YES, J=NO","y2fgphutqv","1","74","78","70","","","","","","","","","","","","","","","",""
"null","audio/stain.wav","null","audio-keyboard-response","340","2.1.0","421795","F=YES, J=NO","y2fgphutqv","1","74","78","70","","","","","","","","","","","","","","","",""
"677","
          <p id=""word"" style=""font-size: 40px;"">wipe</p>
          <p style=""font-size: 16px;"">F = YES &nbsp;&nbsp;&nbsp; J = NO</p>
        ","f","html-keyboard-response","341","2.1.0","422473","F=YES, J=NO","y2fgphutqv","1","74","78","70","","","","","","","","","wipe","stain","literal","experimental","f","true","",""
"null","<p style=""font-size: 50px;"">+</p>","null","html-keyboard-response","342","2.1.0","422778","F=YES, J=NO","y2fgphutqv","1","74","78","70","","","","","","","","","","","","","","","",""
"null","audio/beep-329314.mp3","null","audio-keyboard-response","343","2.1.0","424305","F=YES, J=NO","y2fgphutqv","1","74","78","70","","","","","","","","","","","","","","","",""
"null","audio/butter1.wav","null","audio-keyboard-response","344","2.1.0","424795","F=YES, J=NO","y2fgphutqv","1","74","78","70","","","","","","","","","","","","","","","",""
"732","
          <p id=""word"" style=""font-size: 40px;"">chew</p>
          <p style=""font-size: 16px;"">F = YES &nbsp;&nbsp;&nbsp; J = NO</p>
        ","j","html-keyboard-response","345","2.1.0","425529","F=YES, J=NO","y2fgphutqv","1","74","78","70","","","","","","","","","chew","butter1","filler","filler","f","false","",""
"null","<p style=""font-size: 50px;"">+</p>","null","html-keyboard-response","346","2.1.0","425834","F=YES, J=NO","y2fgphutqv","1","74","78","70","","","","","","","","","","","","","","","",""
"null","audio/beep-329314.mp3","null","audio-keyboard-response","347","2.1.0","427366","F=YES, J=NO","y2fgphutqv","1","74","78","70","","","","","","","","","","","","","","","",""
"null","audio/birth1.wav","null","audio-keyboard-response","348","2.1.0","427895","F=YES, J=NO","y2fgphutqv","1","74","78","70","","","","","","","","","","","","","","","",""
"888","
          <p id=""word"" style=""font-size: 40px;"">peel</p>
          <p style=""font-size: 16px;"">F = YES &nbsp;&nbsp;&nbsp; J = NO</p>
        ","f","html-keyboard-response","349","2.1.0","428784","F=YES, J=NO","y2fgphutqv","1","74","78","70","","","","","","","","","peel","birth1","filler","filler","f","true","",""
"null","<p style=""font-size: 50px;"">+</p>","null","html-keyboard-response","350","2.1.0","429089","F=YES, J=NO","y2fgphutqv","1","74","78","70","","","","","","","","","","","","","","","",""
"null","audio/beep-329314.mp3","null","audio-keyboard-response","351","2.1.0","430625","F=YES, J=NO","y2fgphutqv","1","74","78","70","","","","","","","","","","","","","","","",""
"null","audio/dollar.wav","null","audio-keyboard-response","352","2.1.0","431015","F=YES, J=NO","y2fgphutqv","1","74","78","70","","","","","","","","","","","","","","","",""
"1096","
          <p id=""word"" style=""font-size: 40px;"">gliptism</p>
          <p style=""font-size: 16px;"">F = YES &nbsp;&nbsp;&nbsp; J = NO</p>
        ","j","html-keyboard-response","353","2.1.0","432112","F=YES, J=NO","y2fgphutqv","1","74","78","70","","","","","","","","","gliptism","dollar","pseudoword","pseudoword","j","true","",""
"null","<p style=""font-size: 50px;"">+</p>","null","html-keyboard-response","354","2.1.0","432427","F=YES, J=NO","y2fgphutqv","1","74","78","70","","","","","","","","","","","","","","","",""
"null","audio/beep-329314.mp3","null","audio-keyboard-response","355","2.1.0","433965","F=YES, J=NO","y2fgphutqv","1","74","78","70","","","","","","","","","","","","","","","",""
"null","audio/client1.wav","null","audio-keyboard-response","356","2.1.0","434635","F=YES, J=NO","y2fgphutqv","1","74","78","70","","","","","","","","","","","","","","","",""
"484","
          <p id=""word"" style=""font-size: 40px;"">land</p>
          <p style=""font-size: 16px;"">F = YES &nbsp;&nbsp;&nbsp; J = NO</p>
        ","f","html-keyboard-response","357","2.1.0","435121","F=YES, J=NO","y2fgphutqv","1","74","78","70","","","","","","","","","land","client1","metaphor","experimental","f","true","",""
"null","<p style=""font-size: 50px;"">+</p>","null","html-keyboard-response","358","2.1.0","435427","F=YES, J=NO","y2fgphutqv","1","74","78","70","","","","","","","","","","","","","","","",""
"null","audio/beep-329314.mp3","null","audio-keyboard-response","359","2.1.0","436965","F=YES, J=NO","y2fgphutqv","1","74","78","70","","","","","","","","","","","","","","","",""
"null","audio/ankle1.wav","null","audio-keyboard-response","360","2.1.0","437475","F=YES, J=NO","y2fgphutqv","1","74","78","70","","","","","","","","","","","","","","","",""
"884","
          <p id=""word"" style=""font-size: 40px;"">switm</p>
          <p style=""font-size: 16px;"">F = YES &nbsp;&nbsp;&nbsp; J = NO</p>
        ","f","html-keyboard-response","361","2.1.0","438360","F=YES, J=NO","y2fgphutqv","1","74","78","70","","","","","","","","","switm","ankle1","pseudoword","pseudoword","j","false","",""
"9280","<p>Excellent! You have finished block 3 of 8.</p>
                     <p>Feel free to take a 30 second break.</p>
                     <p>Press any key when you're ready to continue.</p>"," ","html-keyboard-response","362","2.1.0","447641","F=YES, J=NO","y2fgphutqv","1","74","78","70","","","","","","","","","","","","","","","",""
"1839","<p>Starting main block 4 of 8. Press any key to continue.</p>","f","html-keyboard-response","363","2.1.0","449480","F=YES, J=NO","y2fgphutqv","1","74","78","70","","","","","","","","","","","","","","","",""
"null","<p style=""font-size: 50px;"">+</p>","null","html-keyboard-response","364","2.1.0","449794","F=YES, J=NO","y2fgphutqv","1","74","78","70","","","","","","","","","","","","","","","",""
"null","audio/beep-329314.mp3","null","audio-keyboard-response","365","2.1.0","451305","F=YES, J=NO","y2fgphutqv","1","74","78","70","","","","","","","","","","","","","","","",""
"null","audio/story.wav","null","audio-keyboard-response","366","2.1.0","452096","F=YES, J=NO","y2fgphutqv","1","74","78","70","","","","","","","","","","","","","","","",""
"664","
          <p id=""word"" style=""font-size: 40px;"">cover</p>
          <p style=""font-size: 16px;"">F = YES &nbsp;&nbsp;&nbsp; J = NO</p>
        ","f","html-keyboard-response","367","2.1.0","452760","F=YES, J=NO","y2fgphutqv","1","74","78","70","","","","","","","","","cover","story","metaphor","experimental","f","true","",""
"null","<p style=""font-size: 50px;"">+</p>","null","html-keyboard-response","368","2.1.0","453067","F=YES, J=NO","y2fgphutqv","1","74","78","70","","","","","","","","","","","","","","","",""
"null","audio/beep-329314.mp3","null","audio-keyboard-response","369","2.1.0","454605","F=YES, J=NO","y2fgphutqv","1","74","78","70","","","","","","","","","","","","","","","",""
"null","audio/desire.wav","null","audio-keyboard-response","370","2.1.0","455216","F=YES, J=NO","y2fgphutqv","1","74","78","70","","","","","","","","","","","","","","","",""
"416","
          <p id=""word"" style=""font-size: 40px;"">open</p>
          <p style=""font-size: 16px;"">F = YES &nbsp;&nbsp;&nbsp; J = NO</p>
        ","f","html-keyboard-response","371","2.1.0","455632","F=YES, J=NO","y2fgphutqv","1","74","78","70","","","","","","","","","open","desire","unrelated","experimental","f","true","",""
"null","<p style=""font-size: 50px;"">+</p>","null","html-keyboard-response","372","2.1.0","455937","F=YES, J=NO","y2fgphutqv","1","74","78","70","","","","","","","","","","","","","","","",""
"null","audio/beep-329314.mp3","null","audio-keyboard-response","373","2.1.0","457465","F=YES, J=NO","y2fgphutqv","1","74","78","70","","","","","","","","","","","","","","","",""
"null","audio/smirk1.wav","null","audio-keyboard-response","374","2.1.0","458195","F=YES, J=NO","y2fgphutqv","1","74","78","70","","","","","","","","","","","","","","","",""
"636","
          <p id=""word"" style=""font-size: 40px;"">snopt</p>
          <p style=""font-size: 16px;"">F = YES &nbsp;&nbsp;&nbsp; J = NO</p>
        ","j","html-keyboard-response","375","2.1.0","458832","F=YES, J=NO","y2fgphutqv","1","74","78","70","","","","","","","","","snopt","smirk1","pseudoword","pseudoword","j","true","",""
"null","<p style=""font-size: 50px;"">+</p>","null","html-keyboard-response","376","2.1.0","459144","F=YES, J=NO","y2fgphutqv","1","74","78","70","","","","","","","","","","","","","","","",""
"null","audio/beep-329314.mp3","null","audio-keyboard-response","377","2.1.0","460665","F=YES, J=NO","y2fgphutqv","1","74","78","70","","","","","","","","","","","","","","","",""
"null","audio/van1.wav","null","audio-keyboard-response","378","2.1.0","461295","F=YES, J=NO","y2fgphutqv","1","74","78","70","","","","","","","","","","","","","","","",""
"456","
          <p id=""word"" style=""font-size: 40px;"">support</p>
          <p style=""font-size: 16px;"">F = YES &nbsp;&nbsp;&nbsp; J = NO</p>
        ","f","html-keyboard-response","379","2.1.0","461752","F=YES, J=NO","y2fgphutqv","1","74","78","70","","","","","","","","","support","van1","unrelated","experimental","f","true","",""
"null","<p style=""font-size: 50px;"">+</p>","null","html-keyboard-response","380","2.1.0","462067","F=YES, J=NO","y2fgphutqv","1","74","78","70","","","","","","","","","","","","","","","",""
"null","audio/beep-329314.mp3","null","audio-keyboard-response","381","2.1.0","463605","F=YES, J=NO","y2fgphutqv","1","74","78","70","","","","","","","","","","","","","","","",""
"null","audio/battle1.wav","null","audio-keyboard-response","382","2.1.0","464055","F=YES, J=NO","y2fgphutqv","1","74","78","70","","","","","","","","","","","","","","","",""
"424","
          <p id=""word"" style=""font-size: 40px;"">fight</p>
          <p style=""font-size: 16px;"">F = YES &nbsp;&nbsp;&nbsp; J = NO</p>
        ","f","html-keyboard-response","383","2.1.0","464480","F=YES, J=NO","y2fgphutqv","1","74","78","70","","","","","","","","","fight","battle1","literal","experimental","f","true","",""
"null","<p style=""font-size: 50px;"">+</p>","null","html-keyboard-response","384","2.1.0","464782","F=YES, J=NO","y2fgphutqv","1","74","78","70","","","","","","","","","","","","","","","",""
"null","audio/beep-329314.mp3","null","audio-keyboard-response","385","2.1.0","466305","F=YES, J=NO","y2fgphutqv","1","74","78","70","","","","","","","","","","","","","","","",""
"null","audio/road.wav","null","audio-keyboard-response","386","2.1.0","466715","F=YES, J=NO","y2fgphutqv","1","74","78","70","","","","","","","","","","","","","","","",""
"612","
          <p id=""word"" style=""font-size: 40px;"">wappings</p>
          <p style=""font-size: 16px;"">F = YES &nbsp;&nbsp;&nbsp; J = NO</p>
        ","j","html-keyboard-response","387","2.1.0","467328","F=YES, J=NO","y2fgphutqv","1","74","78","70","","","","","","","","","wappings","road","pseudoword","pseudoword","j","true","",""
"null","<p style=""font-size: 50px;"">+</p>","null","html-keyboard-response","388","2.1.0","467630","F=YES, J=NO","y2fgphutqv","1","74","78","70","","","","","","","","","","","","","","","",""
"null","audio/beep-329314.mp3","null","audio-keyboard-response","389","2.1.0","469165","F=YES, J=NO","y2fgphutqv","1","74","78","70","","","","","","","","","","","","","","","",""
"null","audio/menu.wav","null","audio-keyboard-response","390","2.1.0","469775","F=YES, J=NO","y2fgphutqv","1","74","78","70","","","","","","","","","","","","","","","",""
"560","
          <p id=""word"" style=""font-size: 40px;"">slice</p>
          <p style=""font-size: 16px;"">F = YES &nbsp;&nbsp;&nbsp; J = NO</p>
