"rt","stimulus","response","trial_type","trial_index","plugin_version","time_elapsed","response_mapping","subject_id","list_index","lextale_score","lextale_word_score","lextale_nonword_score","success","timeout","failed_images","failed_audio","failed_video","task","isWord","isDummy","target","prime","prime_type","stimulus_type","correct_response","correct","section","question_order"
"119273","
    <div style=""max-width: 800px; margin: auto; text-align: left;"">
      <h2>STANFORD UNIVERSITY</h2>
      <h3>Research Information Sheet</h3>
      <p><strong>Protocol Director:</strong> Robert Hawkins<br>
      <strong>Protocol Title:</strong> Communication and social cognition in natural audiovisual contexts<br>
      <strong>IRB#:</strong> 77226</p>

      <p><strong>DESCRIPTION:</strong> You are invited to participate in a research study about language and communication. The purpose of the research is to understand how you interact and communicate with other people in naturalistic settings as a fluent English speaker. This research will be conducted through the Prolific platform, including participants from the US, UK, and Canada. If you decide to participate in this research, you will play a communication game in a group with one or more partners.</p>

      <p><strong>TIME INVOLVEMENT:</strong> The task will last the amount of time advertised on Prolific. You are free to withdraw from the study at any time.</p>

      <p><strong>RISKS AND BENEFITS:</strong> You may become frustrated if your partner gets distracted, or experience discomfort if other participants in your group send text that is inappropriate for the task. We ask you to please be respectful of other participants you might be interacting with to mitigate these risks. You may also experience discomfort when being asked to discuss or challenge emotionally salient political beliefs. Study data will be stored securely, in compliance with Stanford University standards, minimizing the risk of confidentiality breach. This study advances our scientific understanding of how people communicate and collaborate in naturalistic settings. This study may lead to further insights about what can go wrong in teamwork, suggest potential interventions to overcome these barriers, and help to develop assistive technologies that collaborate with human partners. We cannot and do not guarantee or promise that you will receive any benefits from this study.</p>

      <p><strong>PAYMENTS:</strong> You will receive payment in the amount advertised on Prolific. If you do not complete this study, you will receive prorated payment based on the time that you have spent. Additionally, you may be eligible for bonus payments as described in the instructions.</p>

      <p><strong>PARTICIPANT’S RIGHTS:</strong> If you have read this form and have decided to participate in this project, please understand your participation is voluntary and you have the right to withdraw your consent or discontinue participation at any time without penalty or loss of benefits to which you are otherwise entitled. The alternative is not to participate. You have the right to refuse to answer particular questions. The results of this research study may be presented at scientific or professional meetings or published in scientific journals. Your individual privacy will be maintained in all published and written data resulting from the study. In accordance with scientific norms, the data from this study may be used or shared with other researchers for future research (after removing personally identifying information) without additional consent from you.</p>

      <p><strong>CONTACT INFORMATION:</strong><br>
      Questions: If you have any questions, concerns or complaints about this research, its procedures, risks and benefits, contact the Protocol Director, Robert Hawkins (<a href=""mailto:rdhawkins@stanford.edu"">rdhawkins@stanford.edu</a>, 217-549-6923).<br>
      Independent Contact: If you are not satisfied with how this study is being conducted, or if you have any concerns, complaints, or general questions about the research or your rights as a participant, please contact the Stanford Institutional Review Board (IRB) to speak to someone independent of the research team at 650-723-2480 or toll free at 1-866-680-2906, or email at <a href=""mailto:irbnon-med@stanford.edu"">irbnon-med@stanford.edu</a>. You can also write to the Stanford IRB, Stanford University, 1705 El Camino Real, Palo Alto, CA 94306.</p>

      <p><strong>Please save or print a copy of this page for your records.</strong></p>
      <p>If you agree to participate in this research, click ""Continue"" below.</p>
    </div>
  ","0","html-button-response","0","2.1.0","119287","J=YES, F=NO","y6dooonvlk","0","63","75","50","","","","","","","","","","","","","","","",""
"16699","
    <div style=""max-width: 800px; margin: auto; text-align: left;"">
      <h2>Welcome!</h2>
      <p>Thank you for participating in this study. The experiment consists of three parts:</p>
      <ol>
        <li>An English vocabulary test</li>
        <li>A main task in which you will hear and see words, and decide whether the written word is a real English word</li>
        <li>A brief survey about your background</li>
      </ol>
      <p>Each part will be introduced before it begins.</p>
      <p>Please make sure you are in a quiet environment and can hear audio clearly for the final task.</p>
      <p style=""margin-top: 2em;"">Press any key to begin.</p>
    </div>
  "," ","html-keyboard-response","1","2.1.0","135989","J=YES, F=NO","y6dooonvlk","0","63","75","50","","","","","","","","","","","","","","","",""
"","","","preload","2","2.1.0","137832","J=YES, F=NO","y6dooonvlk","0","63","75","50","true","false","[]","[]","[]","","","","","","","","","","",""
"7865","
    <div style=""max-width: 800px; margin: auto; text-align: left;"">
      <h2>Part 1: Vocabulary Test</h2>
      <p>You will now complete the first part of the study: a short English vocabulary test.</p>
      <p>This test is called <strong>LexTALE</strong> and helps us get a general sense of your English proficiency.</p>
      <p style=""margin-top: 2em;"">Press any key to continue.</p>
    </div>
  "," ","html-keyboard-response","3","2.1.0","145699","J=YES, F=NO","y6dooonvlk","0","63","75","50","","","","","","","","","","","","","","","",""
"15441","
    <div style=""max-width: 800px; margin: auto; text-align: left;"">
      <h2>LexTALE Vocabulary Test</h2>
      <p>In this test, you will see a series of letter strings—one at a time.</p>
      <p>Your task is to decide whether each string is a real English word.</p>
      <p><strong>Key responses:</strong></p>
      <ul>
        <li><strong>J</strong> = YES (real English word)</li>
        <li><strong>F</strong> = NO (not a real English word)</li>
      </ul>
      <p>There is no time limit, but please try to be accurate.</p>
      <p style=""margin-top: 2em;"">Press any key to begin.</p>
    </div>
  "," ","html-keyboard-response","4","2.1.0","161141","J=YES, F=NO","y6dooonvlk","0","63","75","50","","","","","","","","","","","","","","","",""
"21396","
  <p style=""font-size: 40px;"">platery</p>
  <p style=""font-size: 16px;"">J = YES &nbsp;&nbsp;&nbsp; F = NO</p>
","j","html-keyboard-response","5","2.1.0","182540","J=YES, F=NO","y6dooonvlk","0","63","75","50","","","","","","lextale","false","true","","","","","","","",""
"1709","
  <p style=""font-size: 40px;"">denial</p>
  <p style=""font-size: 16px;"">J = YES &nbsp;&nbsp;&nbsp; F = NO</p>
","j","html-keyboard-response","6","2.1.0","184250","J=YES, F=NO","y6dooonvlk","0","63","75","50","","","","","","lextale","true","true","","","","","","","",""
"14953","
  <p style=""font-size: 40px;"">marrit</p>
  <p style=""font-size: 16px;"">J = YES &nbsp;&nbsp;&nbsp; F = NO</p>
","j","html-keyboard-response","7","2.1.0","199205","J=YES, F=NO","y6dooonvlk","0","63","75","50","","","","","","lextale","false","true","","","","","","","",""
"740","
  <p style=""font-size: 40px;"">bottle</p>
  <p style=""font-size: 16px;"">J = YES &nbsp;&nbsp;&nbsp; F = NO</p>
","j","html-keyboard-response","8","2.1.0","199945","J=YES, F=NO","y6dooonvlk","0","63","75","50","","","","","","lextale","true","false","","","","","","","",""
"14206","
  <p style=""font-size: 40px;"">birst</p>
  <p style=""font-size: 16px;"">J = YES &nbsp;&nbsp;&nbsp; F = NO</p>
","f","html-keyboard-response","9","2.1.0","214152","J=YES, F=NO","y6dooonvlk","0","63","75","50","","","","","","lextale","false","false","","","","","","","",""
"1447","
  <p style=""font-size: 40px;"">envy</p>
  <p style=""font-size: 16px;"">J = YES &nbsp;&nbsp;&nbsp; F = NO</p>
","j","html-keyboard-response","10","2.1.0","215601","J=YES, F=NO","y6dooonvlk","0","63","75","50","","","","","","lextale","true","false","","","","","","","",""
"3066","
  <p style=""font-size: 40px;"">brang</p>
  <p style=""font-size: 16px;"">J = YES &nbsp;&nbsp;&nbsp; F = NO</p>
","f","html-keyboard-response","11","2.1.0","218668","J=YES, F=NO","y6dooonvlk","0","63","75","50","","","","","","lextale","false","false","","","","","","","",""
"1246","
  <p style=""font-size: 40px;"">huge</p>
  <p style=""font-size: 16px;"">J = YES &nbsp;&nbsp;&nbsp; F = NO</p>
","j","html-keyboard-response","12","2.1.0","219915","J=YES, F=NO","y6dooonvlk","0","63","75","50","","","","","","lextale","true","false","","","","","","","",""
"2539","
  <p style=""font-size: 40px;"">plove</p>
  <p style=""font-size: 16px;"">J = YES &nbsp;&nbsp;&nbsp; F = NO</p>
","f","html-keyboard-response","13","2.1.0","222454","J=YES, F=NO","y6dooonvlk","0","63","75","50","","","","","","lextale","false","false","","","","","","","",""
"1156","
  <p style=""font-size: 40px;"">border</p>
  <p style=""font-size: 16px;"">J = YES &nbsp;&nbsp;&nbsp; F = NO</p>
","j","html-keyboard-response","14","2.1.0","223610","J=YES, F=NO","y6dooonvlk","0","63","75","50","","","","","","lextale","true","false","","","","","","","",""
"1719","
  <p style=""font-size: 40px;"">flimsy</p>
  <p style=""font-size: 16px;"">J = YES &nbsp;&nbsp;&nbsp; F = NO</p>
","f","html-keyboard-response","15","2.1.0","225330","J=YES, F=NO","y6dooonvlk","0","63","75","50","","","","","","lextale","true","false","","","","","","","",""
"774","
  <p style=""font-size: 40px;"">drain</p>
  <p style=""font-size: 16px;"">J = YES &nbsp;&nbsp;&nbsp; F = NO</p>
","j","html-keyboard-response","16","2.1.0","226104","J=YES, F=NO","y6dooonvlk","0","63","75","50","","","","","","lextale","true","false","","","","","","","",""
"2986","
  <p style=""font-size: 40px;"">twindle</p>
  <p style=""font-size: 16px;"">J = YES &nbsp;&nbsp;&nbsp; F = NO</p>
","j","html-keyboard-response","17","2.1.0","229091","J=YES, F=NO","y6dooonvlk","0","63","75","50","","","","","","lextale","false","false","","","","","","","",""
"936","
  <p style=""font-size: 40px;"">propose</p>
  <p style=""font-size: 16px;"">J = YES &nbsp;&nbsp;&nbsp; F = NO</p>
","j","html-keyboard-response","18","2.1.0","230029","J=YES, F=NO","y6dooonvlk","0","63","75","50","","","","","","lextale","true","false","","","","","","","",""
"1464","
  <p style=""font-size: 40px;"">forlay</p>
  <p style=""font-size: 16px;"">J = YES &nbsp;&nbsp;&nbsp; F = NO</p>
","j","html-keyboard-response","19","2.1.0","231494","J=YES, F=NO","y6dooonvlk","0","63","75","50","","","","","","lextale","false","false","","","","","","","",""
"934","
  <p style=""font-size: 40px;"">tenant</p>
  <p style=""font-size: 16px;"">J = YES &nbsp;&nbsp;&nbsp; F = NO</p>
","j","html-keyboard-response","20","2.1.0","232430","J=YES, F=NO","y6dooonvlk","0","63","75","50","","","","","","lextale","true","false","","","","","","","",""
"797","
  <p style=""font-size: 40px;"">strain</p>
  <p style=""font-size: 16px;"">J = YES &nbsp;&nbsp;&nbsp; F = NO</p>
","j","html-keyboard-response","21","2.1.0","233227","J=YES, F=NO","y6dooonvlk","0","63","75","50","","","","","","lextale","true","false","","","","","","","",""
"1484","
  <p style=""font-size: 40px;"">holster</p>
  <p style=""font-size: 16px;"">J = YES &nbsp;&nbsp;&nbsp; F = NO</p>
","j","html-keyboard-response","22","2.1.0","234712","J=YES, F=NO","y6dooonvlk","0","63","75","50","","","","","","lextale","true","false","","","","","","","",""
"3256","
  <p style=""font-size: 40px;"">hinder</p>
  <p style=""font-size: 16px;"">J = YES &nbsp;&nbsp;&nbsp; F = NO</p>
","j","html-keyboard-response","23","2.1.0","237969","J=YES, F=NO","y6dooonvlk","0","63","75","50","","","","","","lextale","true","false","","","","","","","",""
"902","
  <p style=""font-size: 40px;"">swindle</p>
  <p style=""font-size: 16px;"">J = YES &nbsp;&nbsp;&nbsp; F = NO</p>
","j","html-keyboard-response","24","2.1.0","238873","J=YES, F=NO","y6dooonvlk","0","63","75","50","","","","","","lextale","true","false","","","","","","","",""
"1256","
  <p style=""font-size: 40px;"">nuder</p>
  <p style=""font-size: 16px;"">J = YES &nbsp;&nbsp;&nbsp; F = NO</p>
","f","html-keyboard-response","25","2.1.0","240129","J=YES, F=NO","y6dooonvlk","0","63","75","50","","","","","","lextale","false","false","","","","","","","",""
"686","
  <p style=""font-size: 40px;"">pillow</p>
  <p style=""font-size: 16px;"">J = YES &nbsp;&nbsp;&nbsp; F = NO</p>
","j","html-keyboard-response","26","2.1.0","240817","J=YES, F=NO","y6dooonvlk","0","63","75","50","","","","","","lextale","true","false","","","","","","","",""
"1371","
  <p style=""font-size: 40px;"">shumble</p>
  <p style=""font-size: 16px;"">J = YES &nbsp;&nbsp;&nbsp; F = NO</p>
","f","html-keyboard-response","27","2.1.0","242189","J=YES, F=NO","y6dooonvlk","0","63","75","50","","","","","","lextale","false","false","","","","","","","",""
"802","
  <p style=""font-size: 40px;"">thirst</p>
  <p style=""font-size: 16px;"">J = YES &nbsp;&nbsp;&nbsp; F = NO</p>
","j","html-keyboard-response","28","2.1.0","242992","J=YES, F=NO","y6dooonvlk","0","63","75","50","","","","","","lextale","true","false","","","","","","","",""
"1349","
  <p style=""font-size: 40px;"">unsail</p>
  <p style=""font-size: 16px;"">J = YES &nbsp;&nbsp;&nbsp; F = NO</p>
","j","html-keyboard-response","29","2.1.0","244341","J=YES, F=NO","y6dooonvlk","0","63","75","50","","","","","","lextale","false","false","","","","","","","",""
"928","
  <p style=""font-size: 40px;"">rifle</p>
  <p style=""font-size: 16px;"">J = YES &nbsp;&nbsp;&nbsp; F = NO</p>
","f","html-keyboard-response","30","2.1.0","245271","J=YES, F=NO","y6dooonvlk","0","63","75","50","","","","","","lextale","true","false","","","","","","","",""
"783","
  <p style=""font-size: 40px;"">mush</p>
  <p style=""font-size: 16px;"">J = YES &nbsp;&nbsp;&nbsp; F = NO</p>
","j","html-keyboard-response","31","2.1.0","246054","J=YES, F=NO","y6dooonvlk","0","63","75","50","","","","","","lextale","false","false","","","","","","","",""
"767","
  <p style=""font-size: 40px;"">drench</p>
  <p style=""font-size: 16px;"">J = YES &nbsp;&nbsp;&nbsp; F = NO</p>
","j","html-keyboard-response","32","2.1.0","246822","J=YES, F=NO","y6dooonvlk","0","63","75","50","","","","","","lextale","true","false","","","","","","","",""
"891","
  <p style=""font-size: 40px;"">snirt</p>
  <p style=""font-size: 16px;"">J = YES &nbsp;&nbsp;&nbsp; F = NO</p>
","f","html-keyboard-response","33","2.1.0","247714","J=YES, F=NO","y6dooonvlk","0","63","75","50","","","","","","lextale","false","false","","","","","","","",""
"735","
  <p style=""font-size: 40px;"">bitter</p>
  <p style=""font-size: 16px;"">J = YES &nbsp;&nbsp;&nbsp; F = NO</p>
","j","html-keyboard-response","34","2.1.0","248450","J=YES, F=NO","y6dooonvlk","0","63","75","50","","","","","","lextale","true","false","","","","","","","",""
"1017","
  <p style=""font-size: 40px;"">pliff</p>
  <p style=""font-size: 16px;"">J = YES &nbsp;&nbsp;&nbsp; F = NO</p>
","j","html-keyboard-response","35","2.1.0","249469","J=YES, F=NO","y6dooonvlk","0","63","75","50","","","","","","lextale","false","false","","","","","","","",""
"573","
  <p style=""font-size: 40px;"">tablet</p>
  <p style=""font-size: 16px;"">J = YES &nbsp;&nbsp;&nbsp; F = NO</p>
","j","html-keyboard-response","36","2.1.0","250043","J=YES, F=NO","y6dooonvlk","0","63","75","50","","","","","","lextale","true","false","","","","","","","",""
"720","
  <p style=""font-size: 40px;"">glimmer</p>
  <p style=""font-size: 16px;"">J = YES &nbsp;&nbsp;&nbsp; F = NO</p>
","j","html-keyboard-response","37","2.1.0","250764","J=YES, F=NO","y6dooonvlk","0","63","75","50","","","","","","lextale","true","false","","","","","","","",""
"528","
  <p style=""font-size: 40px;"">slink</p>
  <p style=""font-size: 16px;"">J = YES &nbsp;&nbsp;&nbsp; F = NO</p>
","j","html-keyboard-response","38","2.1.0","251294","J=YES, F=NO","y6dooonvlk","0","63","75","50","","","","","","lextale","true","false","","","","","","","",""
"824","
  <p style=""font-size: 40px;"">clever</p>
  <p style=""font-size: 16px;"">J = YES &nbsp;&nbsp;&nbsp; F = NO</p>
","j","html-keyboard-response","39","2.1.0","252118","J=YES, F=NO","y6dooonvlk","0","63","75","50","","","","","","lextale","true","false","","","","","","","",""
"731","
  <p style=""font-size: 40px;"">grum</p>
  <p style=""font-size: 16px;"">J = YES &nbsp;&nbsp;&nbsp; F = NO</p>
","j","html-keyboard-response","40","2.1.0","252850","J=YES, F=NO","y6dooonvlk","0","63","75","50","","","","","","lextale","false","false","","","","","","","",""
"974","
  <p style=""font-size: 40px;"">string</p>
  <p style=""font-size: 16px;"">J = YES &nbsp;&nbsp;&nbsp; F = NO</p>
","j","html-keyboard-response","41","2.1.0","253824","J=YES, F=NO","y6dooonvlk","0","63","75","50","","","","","","lextale","true","false","","","","","","","",""
"1428","
  <p style=""font-size: 40px;"">plim</p>
  <p style=""font-size: 16px;"">J = YES &nbsp;&nbsp;&nbsp; F = NO</p>
","f","html-keyboard-response","42","2.1.0","255252","J=YES, F=NO","y6dooonvlk","0","63","75","50","","","","","","lextale","false","false","","","","","","","",""
"664","
  <p style=""font-size: 40px;"">cable</p>
  <p style=""font-size: 16px;"">J = YES &nbsp;&nbsp;&nbsp; F = NO</p>
","j","html-keyboard-response","43","2.1.0","255917","J=YES, F=NO","y6dooonvlk","0","63","75","50","","","","","","lextale","true","false","","","","","","","",""
"813","
  <p style=""font-size: 40px;"">shrivel</p>
  <p style=""font-size: 16px;"">J = YES &nbsp;&nbsp;&nbsp; F = NO</p>
","j","html-keyboard-response","44","2.1.0","256731","J=YES, F=NO","y6dooonvlk","0","63","75","50","","","","","","lextale","true","false","","","","","","","",""
"790","
  <p style=""font-size: 40px;"">tarnish</p>
  <p style=""font-size: 16px;"">J = YES &nbsp;&nbsp;&nbsp; F = NO</p>
","j","html-keyboard-response","45","2.1.0","257522","J=YES, F=NO","y6dooonvlk","0","63","75","50","","","","","","lextale","true","false","","","","","","","",""
"652","
  <p style=""font-size: 40px;"">blim</p>
  <p style=""font-size: 16px;"">J = YES &nbsp;&nbsp;&nbsp; F = NO</p>
","j","html-keyboard-response","46","2.1.0","258175","J=YES, F=NO","y6dooonvlk","0","63","75","50","","","","","","lextale","false","false","","","","","","","",""
"2967","
  <p style=""font-size: 40px;"">stifle</p>
  <p style=""font-size: 16px;"">J = YES &nbsp;&nbsp;&nbsp; F = NO</p>
","j","html-keyboard-response","47","2.1.0","261144","J=YES, F=NO","y6dooonvlk","0","63","75","50","","","","","","lextale","true","false","","","","","","","",""
"1286","
  <p style=""font-size: 40px;"">bint</p>
  <p style=""font-size: 16px;"">J = YES &nbsp;&nbsp;&nbsp; F = NO</p>
","f","html-keyboard-response","48","2.1.0","262430","J=YES, F=NO","y6dooonvlk","0","63","75","50","","","","","","lextale","false","false","","","","","","","",""
"559","
  <p style=""font-size: 40px;"">purple</p>
  <p style=""font-size: 16px;"">J = YES &nbsp;&nbsp;&nbsp; F = NO</p>
","j","html-keyboard-response","49","2.1.0","262990","J=YES, F=NO","y6dooonvlk","0","63","75","50","","","","","","lextale","true","false","","","","","","","",""
"1051","
  <p style=""font-size: 40px;"">wriggle</p>
  <p style=""font-size: 16px;"">J = YES &nbsp;&nbsp;&nbsp; F = NO</p>
","f","html-keyboard-response","50","2.1.0","264042","J=YES, F=NO","y6dooonvlk","0","63","75","50","","","","","","lextale","true","false","","","","","","","",""
"1112","
  <p style=""font-size: 40px;"">mangle</p>
  <p style=""font-size: 16px;"">J = YES &nbsp;&nbsp;&nbsp; F = NO</p>
","f","html-keyboard-response","51","2.1.0","265155","J=YES, F=NO","y6dooonvlk","0","63","75","50","","","","","","lextale","true","false","","","","","","","",""
"1164","
  <p style=""font-size: 40px;"">shramp</p>
  <p style=""font-size: 16px;"">J = YES &nbsp;&nbsp;&nbsp; F = NO</p>
","f","html-keyboard-response","52","2.1.0","266320","J=YES, F=NO","y6dooonvlk","0","63","75","50","","","","","","lextale","false","false","","","","","","","",""
"610","
  <p style=""font-size: 40px;"">flirt</p>
  <p style=""font-size: 16px;"">J = YES &nbsp;&nbsp;&nbsp; F = NO</p>
","j","html-keyboard-response","53","2.1.0","266931","J=YES, F=NO","y6dooonvlk","0","63","75","50","","","","","","lextale","true","false","","","","","","","",""
"1511","
  <p style=""font-size: 40px;"">frip</p>
  <p style=""font-size: 16px;"">J = YES &nbsp;&nbsp;&nbsp; F = NO</p>
","f","html-keyboard-response","54","2.1.0","268443","J=YES, F=NO","y6dooonvlk","0","63","75","50","","","","","","lextale","false","false","","","","","","","",""
"628","
  <p style=""font-size: 40px;"">tangle</p>
  <p style=""font-size: 16px;"">J = YES &nbsp;&nbsp;&nbsp; F = NO</p>
","j","html-keyboard-response","55","2.1.0","269072","J=YES, F=NO","y6dooonvlk","0","63","75","50","","","","","","lextale","true","false","","","","","","","",""
"648","
  <p style=""font-size: 40px;"">crumble</p>
  <p style=""font-size: 16px;"">J = YES &nbsp;&nbsp;&nbsp; F = NO</p>
","j","html-keyboard-response","56","2.1.0","269721","J=YES, F=NO","y6dooonvlk","0","63","75","50","","","","","","lextale","true","false","","","","","","","",""
"546","
  <p style=""font-size: 40px;"">wrinkle</p>
  <p style=""font-size: 16px;"">J = YES &nbsp;&nbsp;&nbsp; F = NO</p>
","j","html-keyboard-response","57","2.1.0","270268","J=YES, F=NO","y6dooonvlk","0","63","75","50","","","","","","lextale","true","false","","","","","","","",""
"853","
  <p style=""font-size: 40px;"">slumb</p>
  <p style=""font-size: 16px;"">J = YES &nbsp;&nbsp;&nbsp; F = NO</p>
","j","html-keyboard-response","58","2.1.0","271121","J=YES, F=NO","y6dooonvlk","0","63","75","50","","","","","","lextale","false","false","","","","","","","",""
"512","
  <p style=""font-size: 40px;"">jungle</p>
  <p style=""font-size: 16px;"">J = YES &nbsp;&nbsp;&nbsp; F = NO</p>
","j","html-keyboard-response","59","2.1.0","271634","J=YES, F=NO","y6dooonvlk","0","63","75","50","","","","","","lextale","true","false","","","","","","","",""
"1624","
  <p style=""font-size: 40px;"">frolick</p>
  <p style=""font-size: 16px;"">J = YES &nbsp;&nbsp;&nbsp; F = NO</p>
","j","html-keyboard-response","60","2.1.0","273259","J=YES, F=NO","y6dooonvlk","0","63","75","50","","","","","","lextale","false","false","","","","","","","",""
"2508","
      <h2>LexTALE Test Completed</h2>
      <p>Your LexTALE vocabulary score is: <strong>63%</strong></p>
      <p>Press any key to continue.</p>
    "," ","html-keyboard-response","61","2.1.0","275769","J=YES, F=NO","y6dooonvlk","0","63","75","50","","","","","","","","","","","","","","","",""
"259024","
    <div style=""max-width: 800px; margin: auto; text-align: left;"">
      <h2>Break Time</h2>
      <p>You have completed the first part of the study.</p>
      <p>You may take a short <strong>30-second break</strong> before continuing.</p>
      <p>When you’re ready, press any key to continue to the final task.</p>
    </div>
  "," ","html-keyboard-response","62","2.1.0","534795","J=YES, F=NO","y6dooonvlk","0","63","75","50","","","","","","","","","","","","","","","",""
"21164","
    <div style=""max-width: 800px; margin: auto; text-align: left;"">
      <h2>Part 2: Lexical Decision Task</h2>
      <p>You will now begin the second part of the study.</p>
      <p>Each trial will follow this sequence:</p>
      <ul>
        <li>A fixation cross (+) appears at the center of the screen.</li>
        <li>You will hear a short beep followed by a spoken word.</li>
        <li>A written word will appear briefly on the screen.</li>
      </ul>
      <p>Your task is to judge whether the <strong>written word</strong> is a real English word.</p>
      <p style=""margin-top: 1em;""><strong>Key responses:</strong></p>
      <ul>
        <li><strong>J</strong> = YES (real English word)</li>
        <li><strong>F</strong> = NO (not a real English word)</li>
      </ul>
      <p>Please respond as quickly and accurately as you can.</p>
      <p style=""margin-top: 2em;"">Press any key to continue.</p>
    </div>
  "," ","html-keyboard-response","63","2.1.0","555961","J=YES, F=NO","y6dooonvlk","0","63","75","50","","","","","","","","","","","","","","","",""
"3513","
    <div style=""max-width: 800px; margin: auto; text-align: left;"">
      <h2>Before You Begin</h2>
      <p>Make sure your sound is turned on.</p>
      <p>You will hear audio during each trial, but your decision should be based only on the <strong>written word</strong> you see on the screen.</p>
      <p><strong>Reminder:</strong></p>
      <ul>
        <li><strong>J</strong> = YES (real English word)</li>
        <li><strong>F</strong> = NO (not a real English word)</li>
      </ul>
      <p style=""margin-top: 2em;"">Press any key when you are ready to begin.</p>
    </div>
  ","AudioVolumeUp","html-keyboard-response","64","2.1.0","559477","J=YES, F=NO","y6dooonvlk","0","63","75","50","","","","","","","","","","","","","","","",""
"7711","
    <div style=""max-width: 800px; margin: auto; text-align: left;"">
      <h2>Part 2: Practice Trials</h2>
      <p>You will now complete a few <strong>practice trials</strong> to get familiar with the task.</p>
      <p>These trials are <strong>not scored</strong> and are only to help you get used to the format.</p>
      <p style=""margin-top: 2em;"">Press any key to begin.</p>
    </div>
  "," ","html-keyboard-response","65","2.1.0","567189","J=YES, F=NO","y6dooonvlk","0","63","75","50","","","","","","","","","","","","","","","",""
"3195","<p>Starting practice block 1 of 2. Press any key to continue.</p>"," ","html-keyboard-response","66","2.1.0","570385","J=YES, F=NO","y6dooonvlk","0","63","75","50","","","","","","","","","","","","","","","",""
"null","<p style=""font-size: 50px;"">+</p>","null","html-keyboard-response","67","2.1.0","570697","J=YES, F=NO","y6dooonvlk","0","63","75","50","","","","","","","","","","","","","","","",""
"null","audio/beep-329314.mp3","null","audio-keyboard-response","68","2.1.0","572333","J=YES, F=NO","y6dooonvlk","0","63","75","50","","","","","","","","","","","","","","","",""
"null","audio/battle1.wav","null","audio-keyboard-response","69","2.1.0","573002","J=YES, F=NO","y6dooonvlk","0","63","75","50","","","","","","","","","","","","","","","",""
"null","
          <p id=""word"" style=""font-size: 40px;"">boil</p>
          <p style=""font-size: 16px;"">J = YES &nbsp;&nbsp;&nbsp; F = NO</p>
        ","null","html-keyboard-response","70","2.1.0","574517","J=YES, F=NO","y6dooonvlk","0","63","75","50","","","","","","","","","boil","battle1","filler","filler","j","false","",""
"null","<p style=""font-size: 50px;"">+</p>","null","html-keyboard-response","71","2.1.0","574828","J=YES, F=NO","y6dooonvlk","0","63","75","50","","","","","","","","","","","","","","","",""
"null","audio/beep-329314.mp3","null","audio-keyboard-response","72","2.1.0","576352","J=YES, F=NO","y6dooonvlk","0","63","75","50","","","","","","","","","","","","","","","",""
"null","audio/ankle1.wav","null","audio-keyboard-response","73","2.1.0","577043","J=YES, F=NO","y6dooonvlk","0","63","75","50","","","","","","","","","","","","","","","",""
"775","
          <p id=""word"" style=""font-size: 40px;"">kick</p>
          <p style=""font-size: 16px;"">J = YES &nbsp;&nbsp;&nbsp; F = NO</p>
        ","j","html-keyboard-response","74","2.1.0","577819","J=YES, F=NO","y6dooonvlk","0","63","75","50","","","","","","","","","kick","ankle1","filler","filler","j","true","",""
"null","<p style=""font-size: 50px;"">+</p>","null","html-keyboard-response","75","2.1.0","578129","J=YES, F=NO","y6dooonvlk","0","63","75","50","","","","","","","","","","","","","","","",""
"null","audio/beep-329314.mp3","null","audio-keyboard-response","76","2.1.0","579653","J=YES, F=NO","y6dooonvlk","0","63","75","50","","","","","","","","","","","","","","","",""
"null","audio/bridge.wav","null","audio-keyboard-response","77","2.1.0","580242","J=YES, F=NO","y6dooonvlk","0","63","75","50","","","","","","","","","","","","","","","",""
"685","
          <p id=""word"" style=""font-size: 40px;"">crack</p>
          <p style=""font-size: 16px;"">J = YES &nbsp;&nbsp;&nbsp; F = NO</p>
        ","j","html-keyboard-response","78","2.1.0","580929","J=YES, F=NO","y6dooonvlk","0","63","75","50","","","","","","","","","crack","bridge","filler","filler","j","true","",""
"null","<p style=""font-size: 50px;"">+</p>","null","html-keyboard-response","79","2.1.0","581235","J=YES, F=NO","y6dooonvlk","0","63","75","50","","","","","","","","","","","","","","","",""
"null","audio/beep-329314.mp3","null","audio-keyboard-response","80","2.1.0","582773","J=YES, F=NO","y6dooonvlk","0","63","75","50","","","","","","","","","","","","","","","",""
"null","audio/fence.wav","null","audio-keyboard-response","81","2.1.0","583463","J=YES, F=NO","y6dooonvlk","0","63","75","50","","","","","","","","","","","","","","","",""
"696","
          <p id=""word"" style=""font-size: 40px;"">trim</p>
          <p style=""font-size: 16px;"">J = YES &nbsp;&nbsp;&nbsp; F = NO</p>
        ","j","html-keyboard-response","82","2.1.0","584160","J=YES, F=NO","y6dooonvlk","0","63","75","50","","","","","","","","","trim","fence","filler","filler","j","true","",""
"null","<p style=""font-size: 50px;"">+</p>","null","html-keyboard-response","83","2.1.0","584462","J=YES, F=NO","y6dooonvlk","0","63","75","50","","","","","","","","","","","","","","","",""
"null","audio/beep-329314.mp3","null","audio-keyboard-response","84","2.1.0","585994","J=YES, F=NO","y6dooonvlk","0","63","75","50","","","","","","","","","","","","","","","",""
"null","audio/bishop1.wav","null","audio-keyboard-response","85","2.1.0","586783","J=YES, F=NO","y6dooonvlk","0","63","75","50","","","","","","","","","","","","","","","",""
"478","
          <p id=""word"" style=""font-size: 40px;"">play</p>
          <p style=""font-size: 16px;"">J = YES &nbsp;&nbsp;&nbsp; F = NO</p>
        ","j","html-keyboard-response","86","2.1.0","587263","J=YES, F=NO","y6dooonvlk","0","63","75","50","","","","","","","","","play","bishop1","filler","filler","j","true","",""
"null","<p style=""font-size: 50px;"">+</p>","null","html-keyboard-response","87","2.1.0","587565","J=YES, F=NO","y6dooonvlk","0","63","75","50","","","","","","","","","","","","","","","",""
"null","audio/beep-329314.mp3","null","audio-keyboard-response","88","2.1.0","589094","J=YES, F=NO","y6dooonvlk","0","63","75","50","","","","","","","","","","","","","","","",""
"null","audio/breath.wav","null","audio-keyboard-response","89","2.1.0","589702","J=YES, F=NO","y6dooonvlk","0","63","75","50","","","","","","","","","","","","","","","",""
"606","
          <p id=""word"" style=""font-size: 40px;"">pack</p>
          <p style=""font-size: 16px;"">J = YES &nbsp;&nbsp;&nbsp; F = NO</p>
        ","j","html-keyboard-response","90","2.1.0","590310","J=YES, F=NO","y6dooonvlk","0","63","75","50","","","","","","","","","pack","breath","filler","filler","j","true","",""
"null","<p style=""font-size: 50px;"">+</p>","null","html-keyboard-response","91","2.1.0","590624","J=YES, F=NO","y6dooonvlk","0","63","75","50","","","","","","","","","","","","","","","",""
"null","audio/beep-329314.mp3","null","audio-keyboard-response","92","2.1.0","592153","J=YES, F=NO","y6dooonvlk","0","63","75","50","","","","","","","","","","","","","","","",""
"null","audio/weight1.wav","null","audio-keyboard-response","93","2.1.0","592703","J=YES, F=NO","y6dooonvlk","0","63","75","50","","","","","","","","","","","","","","","",""
"1054","
          <p id=""word"" style=""font-size: 40px;"">crimsh</p>
          <p style=""font-size: 16px;"">J = YES &nbsp;&nbsp;&nbsp; F = NO</p>
        ","f","html-keyboard-response","94","2.1.0","593759","J=YES, F=NO","y6dooonvlk","0","63","75","50","","","","","","","","","crimsh","weight1","pseudoword","pseudoword","f","true","",""
"null","<p style=""font-size: 50px;"">+</p>","null","html-keyboard-response","95","2.1.0","594068","J=YES, F=NO","y6dooonvlk","0","63","75","50","","","","","","","","","","","","","","","",""
"null","audio/beep-329314.mp3","null","audio-keyboard-response","96","2.1.0","595593","J=YES, F=NO","y6dooonvlk","0","63","75","50","","","","","","","","","","","","","","","",""
"null","audio/noise1.wav","null","audio-keyboard-response","97","2.1.0","596483","J=YES, F=NO","y6dooonvlk","0","63","75","50","","","","","","","","","","","","","","","",""
"1044","
          <p id=""word"" style=""font-size: 40px;"">slintered</p>
          <p style=""font-size: 16px;"">J = YES &nbsp;&nbsp;&nbsp; F = NO</p>
        ","f","html-keyboard-response","98","2.1.0","597530","J=YES, F=NO","y6dooonvlk","0","63","75","50","","","","","","","","","slintered","noise1","pseudoword","pseudoword","f","true","",""
"null","<p style=""font-size: 50px;"">+</p>","null","html-keyboard-response","99","2.1.0","597838","J=YES, F=NO","y6dooonvlk","0","63","75","50","","","","","","","","","","","","","","","",""
"null","audio/beep-329314.mp3","null","audio-keyboard-response","100","2.1.0","599373","J=YES, F=NO","y6dooonvlk","0","63","75","50","","","","","","","","","","","","","","","",""
"null","audio/mile1.wav","null","audio-keyboard-response","101","2.1.0","599882","J=YES, F=NO","y6dooonvlk","0","63","75","50","","","","","","","","","","","","","","","",""
"1065","
          <p id=""word"" style=""font-size: 40px;"">writch</p>
          <p style=""font-size: 16px;"">J = YES &nbsp;&nbsp;&nbsp; F = NO</p>
        ","f","html-keyboard-response","102","2.1.0","600949","J=YES, F=NO","y6dooonvlk","0","63","75","50","","","","","","","","","writch","mile1","pseudoword","pseudoword","f","true","",""
"null","<p style=""font-size: 50px;"">+</p>","null","html-keyboard-response","103","2.1.0","601261","J=YES, F=NO","y6dooonvlk","0","63","75","50","","","","","","","","","","","","","","","",""
"null","audio/beep-329314.mp3","null","audio-keyboard-response","104","2.1.0","602793","J=YES, F=NO","y6dooonvlk","0","63","75","50","","","","","","","","","","","","","","","",""
"null","audio/holiday1.wav","null","audio-keyboard-response","105","2.1.0","603462","J=YES, F=NO","y6dooonvlk","0","63","75","50","","","","","","","","","","","","","","","",""
"894","
          <p id=""word"" style=""font-size: 40px;"">drivets</p>
          <p style=""font-size: 16px;"">J = YES &nbsp;&nbsp;&nbsp; F = NO</p>
        ","f","html-keyboard-response","106","2.1.0","604358","J=YES, F=NO","y6dooonvlk","0","63","75","50","","","","","","","","","drivets","holiday1","pseudoword","pseudoword","f","true","",""
"null","<p style=""font-size: 50px;"">+</p>","null","html-keyboard-response","107","2.1.0","604676","J=YES, F=NO","y6dooonvlk","0","63","75","50","","","","","","","","","","","","","","","",""
"null","audio/beep-329314.mp3","null","audio-keyboard-response","108","2.1.0","606217","J=YES, F=NO","y6dooonvlk","0","63","75","50","","","","","","","","","","","","","","","",""
"null","audio/menu.wav","null","audio-keyboard-response","109","2.1.0","607043","J=YES, F=NO","y6dooonvlk","0","63","75","50","","","","","","","","","","","","","","","",""
"691","
          <p id=""word"" style=""font-size: 40px;"">slice</p>
          <p style=""font-size: 16px;"">J = YES &nbsp;&nbsp;&nbsp; F = NO</p>
        ","j","html-keyboard-response","110","2.1.0","607735","J=YES, F=NO","y6dooonvlk","0","63","75","50","","","","","","","","","slice","menu","filler","filler","j","true","",""
"null","<p style=""font-size: 50px;"">+</p>","null","html-keyboard-response","111","2.1.0","608053","J=YES, F=NO","y6dooonvlk","0","63","75","50","","","","","","","","","","","","","","","",""
"null","audio/beep-329314.mp3","null","audio-keyboard-response","112","2.1.0","609592","J=YES, F=NO","y6dooonvlk","0","63","75","50","","","","","","","","","","","","","","","",""
"null","audio/corpse1.wav","null","audio-keyboard-response","113","2.1.0","610522","J=YES, F=NO","y6dooonvlk","0","63","75","50","","","","","","","","","","","","","","","",""
"976","
          <p id=""word"" style=""font-size: 40px;"">glonet</p>
          <p style=""font-size: 16px;"">J = YES &nbsp;&nbsp;&nbsp; F = NO</p>
        ","f","html-keyboard-response","114","2.1.0","611499","J=YES, F=NO","y6dooonvlk","0","63","75","50","","","","","","","","","glonet","corpse1","pseudoword","pseudoword","f","true","",""
"1720","<p>Starting practice block 2 of 2. Press any key to continue.</p>"," ","html-keyboard-response","115","2.1.0","613220","J=YES, F=NO","y6dooonvlk","0","63","75","50","","","","","","","","","","","","","","","",""
"null","<p style=""font-size: 50px;"">+</p>","null","html-keyboard-response","116","2.1.0","613531","J=YES, F=NO","y6dooonvlk","0","63","75","50","","","","","","","","","","","","","","","",""
"null","audio/beep-329314.mp3","null","audio-keyboard-response","117","2.1.0","615074","J=YES, F=NO","y6dooonvlk","0","63","75","50","","","","","","","","","","","","","","","",""
"null","audio/gossip1.wav","null","audio-keyboard-response","118","2.1.0","615903","J=YES, F=NO","y6dooonvlk","0","63","75","50","","","","","","","","","","","","","","","",""
"813","
          <p id=""word"" style=""font-size: 40px;"">camerish</p>
          <p style=""font-size: 16px;"">J = YES &nbsp;&nbsp;&nbsp; F = NO</p>
        ","f","html-keyboard-response","119","2.1.0","616718","J=YES, F=NO","y6dooonvlk","0","63","75","50","","","","","","","","","camerish","gossip1","pseudoword","pseudoword","f","true","",""
"null","<p style=""font-size: 50px;"">+</p>","null","html-keyboard-response","120","2.1.0","617023","J=YES, F=NO","y6dooonvlk","0","63","75","50","","","","","","","","","","","","","","","",""
"null","audio/beep-329314.mp3","null","audio-keyboard-response","121","2.1.0","618552","J=YES, F=NO","y6dooonvlk","0","63","75","50","","","","","","","","","","","","","","","",""
"null","audio/hotel1.wav","null","audio-keyboard-response","122","2.1.0","619223","J=YES, F=NO","y6dooonvlk","0","63","75","50","","","","","","","","","","","","","","","",""
"1036","
          <p id=""word"" style=""font-size: 40px;"">flanter</p>
          <p style=""font-size: 16px;"">J = YES &nbsp;&nbsp;&nbsp; F = NO</p>
        ","f","html-keyboard-response","123","2.1.0","620261","J=YES, F=NO","y6dooonvlk","0","63","75","50","","","","","","","","","flanter","hotel1","pseudoword","pseudoword","f","true","",""
"null","<p style=""font-size: 50px;"">+</p>","null","html-keyboard-response","124","2.1.0","620570","J=YES, F=NO","y6dooonvlk","0","63","75","50","","","","","","","","","","","","","","","",""
"null","audio/beep-329314.mp3","null","audio-keyboard-response","125","2.1.0","622093","J=YES, F=NO","y6dooonvlk","0","63","75","50","","","","","","","","","","","","","","","",""
"null","audio/sugar1.wav","null","audio-keyboard-response","126","2.1.0","622762","J=YES, F=NO","y6dooonvlk","0","63","75","50","","","","","","","","","","","","","","","",""
"679","
          <p id=""word"" style=""font-size: 40px;"">glung</p>
          <p style=""font-size: 16px;"">J = YES &nbsp;&nbsp;&nbsp; F = NO</p>
        ","f","html-keyboard-response","127","2.1.0","623442","J=YES, F=NO","y6dooonvlk","0","63","75","50","","","","","","","","","glung","sugar1","pseudoword","pseudoword","f","true","",""
"null","<p style=""font-size: 50px;"">+</p>","null","html-keyboard-response","128","2.1.0","623746","J=YES, F=NO","y6dooonvlk","0","63","75","50","","","","","","","","","","","","","","","",""
"null","audio/beep-329314.mp3","null","audio-keyboard-response","129","2.1.0","625273","J=YES, F=NO","y6dooonvlk","0","63","75","50","","","","","","","","","","","","","","","",""
"null","audio/window1.wav","null","audio-keyboard-response","130","2.1.0","626043","J=YES, F=NO","y6dooonvlk","0","63","75","50","","","","","","","","","","","","","","","",""
"647","
          <p id=""word"" style=""font-size: 40px;"">toss</p>
          <p style=""font-size: 16px;"">J = YES &nbsp;&nbsp;&nbsp; F = NO</p>
        ","j","html-keyboard-response","131","2.1.0","626692","J=YES, F=NO","y6dooonvlk","0","63","75","50","","","","","","","","","toss","window1","filler","filler","j","true","",""
"null","<p style=""font-size: 50px;"">+</p>","null","html-keyboard-response","132","2.1.0","626996","J=YES, F=NO","y6dooonvlk","0","63","75","50","","","","","","","","","","","","","","","",""
"null","audio/beep-329314.mp3","null","audio-keyboard-response","133","2.1.0","628534","J=YES, F=NO","y6dooonvlk","0","63","75","50","","","","","","","","","","","","","","","",""
"null","audio/prisoner.wav","null","audio-keyboard-response","134","2.1.0","629082","J=YES, F=NO","y6dooonvlk","0","63","75","50","","","","","","","","","","","","","","","",""
"981","
          <p id=""word"" style=""font-size: 40px;"">egotian</p>
          <p style=""font-size: 16px;"">J = YES &nbsp;&nbsp;&nbsp; F = NO</p>
        ","f","html-keyboard-response","135","2.1.0","630065","J=YES, F=NO","y6dooonvlk","0","63","75","50","","","","","","","","","egotian","prisoner","pseudoword","pseudoword","f","true","",""
"null","<p style=""font-size: 50px;"">+</p>","null","html-keyboard-response","136","2.1.0","630382","J=YES, F=NO","y6dooonvlk","0","63","75","50","","","","","","","","","","","","","","","",""
"null","audio/beep-329314.mp3","null","audio-keyboard-response","137","2.1.0","631913","J=YES, F=NO","y6dooonvlk","0","63","75","50","","","","","","","","","","","","","","","",""
"null","audio/truth1.wav","null","audio-keyboard-response","138","2.1.0","632663","J=YES, F=NO","y6dooonvlk","0","63","75","50","","","","","","","","","","","","","","","",""
"720","
          <p id=""word"" style=""font-size: 40px;"">calitom</p>
          <p style=""font-size: 16px;"">J = YES &nbsp;&nbsp;&nbsp; F = NO</p>
        ","f","html-keyboard-response","139","2.1.0","633385","J=YES, F=NO","y6dooonvlk","0","63","75","50","","","","","","","","","calitom","truth1","pseudoword","pseudoword","f","true","",""
"null","<p style=""font-size: 50px;"">+</p>","null","html-keyboard-response","140","2.1.0","633696","J=YES, F=NO","y6dooonvlk","0","63","75","50","","","","","","","","","","","","","","","",""
"null","audio/beep-329314.mp3","null","audio-keyboard-response","141","2.1.0","635233","J=YES, F=NO","y6dooonvlk","0","63","75","50","","","","","","","","","","","","","","","",""
"null","audio/novel.wav","null","audio-keyboard-response","142","2.1.0","635763","J=YES, F=NO","y6dooonvlk","0","63","75","50","","","","","","","","","","","","","","","",""
"523","
          <p id=""word"" style=""font-size: 40px;"">type</p>
          <p style=""font-size: 16px;"">J = YES &nbsp;&nbsp;&nbsp; F = NO</p>
        ","j","html-keyboard-response","143","2.1.0","636287","J=YES, F=NO","y6dooonvlk","0","63","75","50","","","","","","","","","type","novel","filler","filler","j","true","",""
"null","<p style=""font-size: 50px;"">+</p>","null","html-keyboard-response","144","2.1.0","636592","J=YES, F=NO","y6dooonvlk","0","63","75","50","","","","","","","","","","","","","","","",""
"null","audio/beep-329314.mp3","null","audio-keyboard-response","145","2.1.0","638132","J=YES, F=NO","y6dooonvlk","0","63","75","50","","","","","","","","","","","","","","","",""
"null","audio/account1.wav","null","audio-keyboard-response","146","2.1.0","639213","J=YES, F=NO","y6dooonvlk","0","63","75","50","","","","","","","","","","","","","","","",""
"436","
          <p id=""word"" style=""font-size: 40px;"">paint</p>
          <p style=""font-size: 16px;"">J = YES &nbsp;&nbsp;&nbsp; F = NO</p>
        ","j","html-keyboard-response","147","2.1.0","639650","J=YES, F=NO","y6dooonvlk","0","63","75","50","","","","","","","","","paint","account1","filler","filler","j","true","",""
"null","<p style=""font-size: 50px;"">+</p>","null","html-keyboard-response","148","2.1.0","639952","J=YES, F=NO","y6dooonvlk","0","63","75","50","","","","","","","","","","","","","","","",""
"null","audio/beep-329314.mp3","null","audio-keyboard-response","149","2.1.0","641493","J=YES, F=NO","y6dooonvlk","0","63","75","50","","","","","","","","","","","","","","","",""
"null","audio/pain1.wav","null","audio-keyboard-response","150","2.1.0","642102","J=YES, F=NO","y6dooonvlk","0","63","75","50","","","","","","","","","","","","","","","",""
"765","
          <p id=""word"" style=""font-size: 40px;"">tritted</p>
          <p style=""font-size: 16px;"">J = YES &nbsp;&nbsp;&nbsp; F = NO</p>
        ","f","html-keyboard-response","151","2.1.0","642868","J=YES, F=NO","y6dooonvlk","0","63","75","50","","","","","","","","","tritted","pain1","pseudoword","pseudoword","f","true","",""
"null","<p style=""font-size: 50px;"">+</p>","null","html-keyboard-response","152","2.1.0","643178","J=YES, F=NO","y6dooonvlk","0","63","75","50","","","","","","","","","","","","","","","",""
"null","audio/beep-329314.mp3","null","audio-keyboard-response","153","2.1.0","644712","J=YES, F=NO","y6dooonvlk","0","63","75","50","","","","","","","","","","","","","","","",""
"null","audio/kettle1.wav","null","audio-keyboard-response","154","2.1.0","645203","J=YES, F=NO","y6dooonvlk","0","63","75","50","","","","","","","","","","","","","","","",""
"588","
          <p id=""word"" style=""font-size: 40px;"">wrap</p>
          <p style=""font-size: 16px;"">J = YES &nbsp;&nbsp;&nbsp; F = NO</p>
        ","j","html-keyboard-response","155","2.1.0","645792","J=YES, F=NO","y6dooonvlk","0","63","75","50","","","","","","","","","wrap","kettle1","filler","filler","j","true","",""
"null","<p style=""font-size: 50px;"">+</p>","null","html-keyboard-response","156","2.1.0","646094","J=YES, F=NO","y6dooonvlk","0","63","75","50","","","","","","","","","","","","","","","",""
"null","audio/beep-329314.mp3","null","audio-keyboard-response","157","2.1.0","647633","J=YES, F=NO","y6dooonvlk","0","63","75","50","","","","","","","","","","","","","","","",""
"null","audio/bomb1.wav","null","audio-keyboard-response","158","2.1.0","648063","J=YES, F=NO","y6dooonvlk","0","63","75","50","","","","","","","","","","","","","","","",""
"501","
          <p id=""word"" style=""font-size: 40px;"">clean</p>
          <p style=""font-size: 16px;"">J = YES &nbsp;&nbsp;&nbsp; F = NO</p>
        ","j","html-keyboard-response","159","2.1.0","648565","J=YES, F=NO","y6dooonvlk","0","63","75","50","","","","","","","","","clean","bomb1","filler","filler","j","true","",""
"null","<p style=""font-size: 50px;"">+</p>","null","html-keyboard-response","160","2.1.0","648881","J=YES, F=NO","y6dooonvlk","0","63","75","50","","","","","","","","","","","","","","","",""
"null","audio/beep-329314.mp3","null","audio-keyboard-response","161","2.1.0","650412","J=YES, F=NO","y6dooonvlk","0","63","75","50","","","","","","","","","","","","","","","",""
"null","audio/sand.wav","null","audio-keyboard-response","162","2.1.0","651082","J=YES, F=NO","y6dooonvlk","0","63","75","50","","","","","","","","","","","","","","","",""
"841","
          <p id=""word"" style=""font-size: 40px;"">proted</p>
          <p style=""font-size: 16px;"">J = YES &nbsp;&nbsp;&nbsp; F = NO</p>
        ","f","html-keyboard-response","163","2.1.0","651926","J=YES, F=NO","y6dooonvlk","0","63","75","50","","","","","","","","","proted","sand","pseudoword","pseudoword","f","true","",""
"6826","
    <div style=""max-width: 800px; margin: auto; text-align: left;"">
      <h2>Part 2: Main Trials</h2>
      <p>Great job on the practice trials!</p>
      <p>You will now begin the <strong>main set of trials</strong>.</p>
      <p>Remember your key assignments:</p>
      <ul>
        <li><strong>J</strong> = YES (real English word)</li>
        <li><strong>F</strong> = NO (not a real English word)</li>
      </ul>
      <p>Try to respond as <strong>quickly and accurately</strong> as possible.</p>
      <p style=""margin-top: 2em;"">Press any key to begin the main trials.</p>
    </div>
  "," ","html-keyboard-response","164","2.1.0","658754","J=YES, F=NO","y6dooonvlk","0","63","75","50","","","","","","","","","","","","","","","",""
"2353","<p>Starting main block 1 of 8. Press any key to continue.</p>"," ","html-keyboard-response","165","2.1.0","661108","J=YES, F=NO","y6dooonvlk","0","63","75","50","","","","","","","","","","","","","","","",""
"null","<p style=""font-size: 50px;"">+</p>","null","html-keyboard-response","166","2.1.0","661421","J=YES, F=NO","y6dooonvlk","0","63","75","50","","","","","","","","","","","","","","","",""
"null","audio/beep-329314.mp3","null","audio-keyboard-response","167","2.1.0","662932","J=YES, F=NO","y6dooonvlk","0","63","75","50","","","","","","","","","","","","","","","",""
"null","audio/budget1.wav","null","audio-keyboard-response","168","2.1.0","663533","J=YES, F=NO","y6dooonvlk","0","63","75","50","","","","","","","","","","","","","","","",""
"565","
          <p id=""word"" style=""font-size: 40px;"">sulist</p>
          <p style=""font-size: 16px;"">J = YES &nbsp;&nbsp;&nbsp; F = NO</p>
        ","f","html-keyboard-response","169","2.1.0","664099","J=YES, F=NO","y6dooonvlk","0","63","75","50","","","","","","","","","sulist","budget1","pseudoword","pseudoword","f","true","",""
"null","<p style=""font-size: 50px;"">+</p>","null","html-keyboard-response","170","2.1.0","664403","J=YES, F=NO","y6dooonvlk","0","63","75","50","","","","","","","","","","","","","","","",""
"null","audio/beep-329314.mp3","null","audio-keyboard-response","171","2.1.0","665933","J=YES, F=NO","y6dooonvlk","0","63","75","50","","","","","","","","","","","","","","","",""
"null","audio/budget1.wav","null","audio-keyboard-response","172","2.1.0","666533","J=YES, F=NO","y6dooonvlk","0","63","75","50","","","","","","","","","","","","","","","",""
"625","
          <p id=""word"" style=""font-size: 40px;"">cut</p>
          <p style=""font-size: 16px;"">J = YES &nbsp;&nbsp;&nbsp; F = NO</p>
        ","j","html-keyboard-response","173","2.1.0","667159","J=YES, F=NO","y6dooonvlk","0","63","75","50","","","","","","","","","cut","budget1","metaphor","experimental","j","true","",""
"null","<p style=""font-size: 50px;"">+</p>","null","html-keyboard-response","174","2.1.0","667463","J=YES, F=NO","y6dooonvlk","0","63","75","50","","","","","","","","","","","","","","","",""
"null","audio/beep-329314.mp3","null","audio-keyboard-response","175","2.1.0","668993","J=YES, F=NO","y6dooonvlk","0","63","75","50","","","","","","","","","","","","","","","",""
"null","audio/cash1.wav","null","audio-keyboard-response","176","2.1.0","669613","J=YES, F=NO","y6dooonvlk","0","63","75","50","","","","","","","","","","","","","","","",""
"881","
          <p id=""word"" style=""font-size: 40px;"">splear</p>
          <p style=""font-size: 16px;"">J = YES &nbsp;&nbsp;&nbsp; F = NO</p>
        ","f","html-keyboard-response","177","2.1.0","670496","J=YES, F=NO","y6dooonvlk","0","63","75","50","","","","","","","","","splear","cash1","pseudoword","pseudoword","f","true","",""
"null","<p style=""font-size: 50px;"">+</p>","null","html-keyboard-response","178","2.1.0","670815","J=YES, F=NO","y6dooonvlk","0","63","75","50","","","","","","","","","","","","","","","",""
"null","audio/beep-329314.mp3","null","audio-keyboard-response","179","2.1.0","672354","J=YES, F=NO","y6dooonvlk","0","63","75","50","","","","","","","","","","","","","","","",""
"null","audio/holiday1.wav","null","audio-keyboard-response","180","2.1.0","672972","J=YES, F=NO","y6dooonvlk","0","63","75","50","","","","","","","","","","","","","","","",""
"506","
          <p id=""word"" style=""font-size: 40px;"">spend</p>
          <p style=""font-size: 16px;"">J = YES &nbsp;&nbsp;&nbsp; F = NO</p>
        ","j","html-keyboard-response","181","2.1.0","673480","J=YES, F=NO","y6dooonvlk","0","63","75","50","","","","","","","","","spend","holiday1","metaphor","experimental","j","true","",""
"null","<p style=""font-size: 50px;"">+</p>","null","html-keyboard-response","182","2.1.0","673787","J=YES, F=NO","y6dooonvlk","0","63","75","50","","","","","","","","","","","","","","","",""
"null","audio/beep-329314.mp3","null","audio-keyboard-response","183","2.1.0","675312","J=YES, F=NO","y6dooonvlk","0","63","75","50","","","","","","","","","","","","","","","",""
"null","audio/tomato.wav","null","audio-keyboard-response","184","2.1.0","676012","J=YES, F=NO","y6dooonvlk","0","63","75","50","","","","","","","","","","","","","","","",""
"1036","
          <p id=""word"" style=""font-size: 40px;"">grow</p>
          <p style=""font-size: 16px;"">J = YES &nbsp;&nbsp;&nbsp; F = NO</p>
        ","j","html-keyboard-response","185","2.1.0","677050","J=YES, F=NO","y6dooonvlk","0","63","75","50","","","","","","","","","grow","tomato","literal","experimental","j","true","",""
"null","<p style=""font-size: 50px;"">+</p>","null","html-keyboard-response","186","2.1.0","677357","J=YES, F=NO","y6dooonvlk","0","63","75","50","","","","","","","","","","","","","","","",""
"null","audio/beep-329314.mp3","null","audio-keyboard-response","187","2.1.0","678893","J=YES, F=NO","y6dooonvlk","0","63","75","50","","","","","","","","","","","","","","","",""
"null","audio/bush1.wav","null","audio-keyboard-response","188","2.1.0","679373","J=YES, F=NO","y6dooonvlk","0","63","75","50","","","","","","","","","","","","","","","",""
"849","
          <p id=""word"" style=""font-size: 40px;"">platined</p>
          <p style=""font-size: 16px;"">J = YES &nbsp;&nbsp;&nbsp; F = NO</p>
        ","f","html-keyboard-response","189","2.1.0","680225","J=YES, F=NO","y6dooonvlk","0","63","75","50","","","","","","","","","platined","bush1","pseudoword","pseudoword","f","true","",""
"null","<p style=""font-size: 50px;"">+</p>","null","html-keyboard-response","190","2.1.0","680529","J=YES, F=NO","y6dooonvlk","0","63","75","50","","","","","","","","","","","","","","","",""
"null","audio/beep-329314.mp3","null","audio-keyboard-response","191","2.1.0","682053","J=YES, F=NO","y6dooonvlk","0","63","75","50","","","","","","","","","","","","","","","",""
"null","audio/desire.wav","null","audio-keyboard-response","192","2.1.0","682712","J=YES, F=NO","y6dooonvlk","0","63","75","50","","","","","","","","","","","","","","","",""
"493","
          <p id=""word"" style=""font-size: 40px;"">open</p>
          <p style=""font-size: 16px;"">J = YES &nbsp;&nbsp;&nbsp; F = NO</p>
        ","j","html-keyboard-response","193","2.1.0","683207","J=YES, F=NO","y6dooonvlk","0","63","75","50","","","","","","","","","open","desire","unrelated","experimental","j","true","",""
"null","<p style=""font-size: 50px;"">+</p>","null","html-keyboard-response","194","2.1.0","683510","J=YES, F=NO","y6dooonvlk","0","63","75","50","","","","","","","","","","","","","","","",""
"null","audio/beep-329314.mp3","null","audio-keyboard-response","195","2.1.0","685052","J=YES, F=NO","y6dooonvlk","0","63","75","50","","","","","","","","","","","","","","","",""
"null","audio/voice.wav","null","audio-keyboard-response","196","2.1.0","685673","J=YES, F=NO","y6dooonvlk","0","63","75","50","","","","","","","","","","","","","","","",""
"525","
          <p id=""word"" style=""font-size: 40px;"">grintle</p>
          <p style=""font-size: 16px;"">J = YES &nbsp;&nbsp;&nbsp; F = NO</p>
        ","j","html-keyboard-response","197","2.1.0","686201","J=YES, F=NO","y6dooonvlk","0","63","75","50","","","","","","","","","grintle","voice","pseudoword","pseudoword","f","false","",""
"null","<p style=""font-size: 50px;"">+</p>","null","html-keyboard-response","198","2.1.0","686518","J=YES, F=NO","y6dooonvlk","0","63","75","50","","","","","","","","","","","","","","","",""
"null","audio/beep-329314.mp3","null","audio-keyboard-response","199","2.1.0","688053","J=YES, F=NO","y6dooonvlk","0","63","75","50","","","","","","","","","","","","","","","",""
"null","audio/chance.wav","null","audio-keyboard-response","200","2.1.0","688732","J=YES, F=NO","y6dooonvlk","0","63","75","50","","","","","","","","","","","","","","","",""
"886","
          <p id=""word"" style=""font-size: 40px;"">seize</p>
          <p style=""font-size: 16px;"">J = YES &nbsp;&nbsp;&nbsp; F = NO</p>
        ","j","html-keyboard-response","201","2.1.0","689619","J=YES, F=NO","y6dooonvlk","0","63","75","50","","","","","","","","","seize","chance","metaphor","experimental","j","true","",""
"null","<p style=""font-size: 50px;"">+</p>","null","html-keyboard-response","202","2.1.0","689932","J=YES, F=NO","y6dooonvlk","0","63","75","50","","","","","","","","","","","","","","","",""
"null","audio/beep-329314.mp3","null","audio-keyboard-response","203","2.1.0","691473","J=YES, F=NO","y6dooonvlk","0","63","75","50","","","","","","","","","","","","","","","",""
"null","audio/brain.wav","null","audio-keyboard-response","204","2.1.0","691992","J=YES, F=NO","y6dooonvlk","0","63","75","50","","","","","","","","","","","","","","","",""
"858","
          <p id=""word"" style=""font-size: 40px;"">flood</p>
          <p style=""font-size: 16px;"">J = YES &nbsp;&nbsp;&nbsp; F = NO</p>
        ","j","html-keyboard-response","205","2.1.0","692852","J=YES, F=NO","y6dooonvlk","0","63","75","50","","","","","","","","","flood","brain","metaphor","experimental","j","true","",""
"null","<p style=""font-size: 50px;"">+</p>","null","html-keyboard-response","206","2.1.0","693154","J=YES, F=NO","y6dooonvlk","0","63","75","50","","","","","","","","","","","","","","","",""
"null","audio/beep-329314.mp3","null","audio-keyboard-response","207","2.1.0","694693","J=YES, F=NO","y6dooonvlk","0","63","75","50","","","","","","","","","","","","","","","",""
"null","audio/kettle1.wav","null","audio-keyboard-response","208","2.1.0","695154","J=YES, F=NO","y6dooonvlk","0","63","75","50","","","","","","","","","","","","","","","",""
"534","
          <p id=""word"" style=""font-size: 40px;"">navigate</p>
          <p style=""font-size: 16px;"">J = YES &nbsp;&nbsp;&nbsp; F = NO</p>
        ","j","html-keyboard-response","209","2.1.0","695690","J=YES, F=NO","y6dooonvlk","0","63","75","50","","","","","","","","","navigate","kettle1","unrelated","experimental","j","true","",""
"null","<p style=""font-size: 50px;"">+</p>","null","html-keyboard-response","210","2.1.0","695997","J=YES, F=NO","y6dooonvlk","0","63","75","50","","","","","","","","","","","","","","","",""
"null","audio/beep-329314.mp3","null","audio-keyboard-response","211","2.1.0","697534","J=YES, F=NO","y6dooonvlk","0","63","75","50","","","","","","","","","","","","","","","",""
"null","audio/ankle1.wav","null","audio-keyboard-response","212","2.1.0","698052","J=YES, F=NO","y6dooonvlk","0","63","75","50","","","","","","","","","","","","","","","",""
"962","
          <p id=""word"" style=""font-size: 40px;"">switm</p>
          <p style=""font-size: 16px;"">J = YES &nbsp;&nbsp;&nbsp; F = NO</p>
        ","f","html-keyboard-response","213","2.1.0","699016","J=YES, F=NO","y6dooonvlk","0","63","75","50","","","","","","","","","switm","ankle1","pseudoword","pseudoword","f","true","",""
"null","<p style=""font-size: 50px;"">+</p>","null","html-keyboard-response","214","2.1.0","699329","J=YES, F=NO","y6dooonvlk","0","63","75","50","","","","","","","","","","","","","","","",""
"null","audio/beep-329314.mp3","null","audio-keyboard-response","215","2.1.0","700853","J=YES, F=NO","y6dooonvlk","0","63","75","50","","","","","","","","","","","","","","","",""
"null","audio/cancer1.wav","null","audio-keyboard-response","216","2.1.0","701453","J=YES, F=NO","y6dooonvlk","0","63","75","50","","","","","","","","","","","","","","","",""
"532","
          <p id=""word"" style=""font-size: 40px;"">draw</p>
          <p style=""font-size: 16px;"">J = YES &nbsp;&nbsp;&nbsp; F = NO</p>
        ","j","html-keyboard-response","217","2.1.0","701986","J=YES, F=NO","y6dooonvlk","0","63","75","50","","","","","","","","","draw","cancer1","filler","filler","j","true","",""
"null","<p style=""font-size: 50px;"">+</p>","null","html-keyboard-response","218","2.1.0","702302","J=YES, F=NO","y6dooonvlk","0","63","75","50","","","","","","","","","","","","","","","",""
"null","audio/beep-329314.mp3","null","audio-keyboard-response","219","2.1.0","703833","J=YES, F=NO","y6dooonvlk","0","63","75","50","","","","","","","","","","","","","","","",""
"null","audio/dome.wav","null","audio-keyboard-response","220","2.1.0","704294","J=YES, F=NO","y6dooonvlk","0","63","75","50","","","","","","","","","","","","","","","",""
"1130","
          <p id=""word"" style=""font-size: 40px;"">scrupliness</p>
          <p style=""font-size: 16px;"">J = YES &nbsp;&nbsp;&nbsp; F = NO</p>
        ","f","html-keyboard-response","221","2.1.0","705425","J=YES, F=NO","y6dooonvlk","0","63","75","50","","","","","","","","","scrupliness","dome","pseudoword","pseudoword","f","true","",""
"null","<p style=""font-size: 50px;"">+</p>","null","html-keyboard-response","222","2.1.0","705737","J=YES, F=NO","y6dooonvlk","0","63","75","50","","","","","","","","","","","","","","","",""
"null","audio/beep-329314.mp3","null","audio-keyboard-response","223","2.1.0","707273","J=YES, F=NO","y6dooonvlk","0","63","75","50","","","","","","","","","","","","","","","",""
"null","audio/show.wav","null","audio-keyboard-response","224","2.1.0","707853","J=YES, F=NO","y6dooonvlk","0","63","75","50","","","","","","","","","","","","","","","",""
"493","
          <p id=""word"" style=""font-size: 40px;"">smark</p>
          <p style=""font-size: 16px;"">J = YES &nbsp;&nbsp;&nbsp; F = NO</p>
        ","j","html-keyboard-response","225","2.1.0","708348","J=YES, F=NO","y6dooonvlk","0","63","75","50","","","","","","","","","smark","show","pseudoword","pseudoword","f","false","",""
"null","<p style=""font-size: 50px;"">+</p>","null","html-keyboard-response","226","2.1.0","708658","J=YES, F=NO","y6dooonvlk","0","63","75","50","","","","","","","","","","","","","","","",""
"null","audio/beep-329314.mp3","null","audio-keyboard-response","227","2.1.0","710194","J=YES, F=NO","y6dooonvlk","0","63","75","50","","","","","","","","","","","","","","","",""
"null","audio/baby.wav","null","audio-keyboard-response","228","2.1.0","710713","J=YES, F=NO","y6dooonvlk","0","63","75","50","","","","","","","","","","","","","","","",""
"548","
          <p id=""word"" style=""font-size: 40px;"">hold</p>
          <p style=""font-size: 16px;"">J = YES &nbsp;&nbsp;&nbsp; F = NO</p>
        ","j","html-keyboard-response","229","2.1.0","711262","J=YES, F=NO","y6dooonvlk","0","63","75","50","","","","","","","","","hold","baby","literal","experimental","j","true","",""
"1332","<p>Excellent! You have finished block 1 of 8.</p>
                     <p>Feel free to take a 30 second break.</p>
                     <p>Press any key when you're ready to continue.</p>"," ","html-keyboard-response","230","2.1.0","712596","J=YES, F=NO","y6dooonvlk","0","63","75","50","","","","","","","","","","","","","","","",""
"1494","<p>Starting main block 2 of 8. Press any key to continue.</p>"," ","html-keyboard-response","231","2.1.0","714091","J=YES, F=NO","y6dooonvlk","0","63","75","50","","","","","","","","","","","","","","","",""
"null","<p style=""font-size: 50px;"">+</p>","null","html-keyboard-response","232","2.1.0","714400","J=YES, F=NO","y6dooonvlk","0","63","75","50","","","","","","","","","","","","","","","",""
"null","audio/beep-329314.mp3","null","audio-keyboard-response","233","2.1.0","715933","J=YES, F=NO","y6dooonvlk","0","63","75","50","","","","","","","","","","","","","","","",""
"null","audio/pattern.wav","null","audio-keyboard-response","234","2.1.0","716493","J=YES, F=NO","y6dooonvlk","0","63","75","50","","","","","","","","","","","","","","","",""
"919","
          <p id=""word"" style=""font-size: 40px;"">tug</p>
          <p style=""font-size: 16px;"">J = YES &nbsp;&nbsp;&nbsp; F = NO</p>
        ","f","html-keyboard-response","235","2.1.0","717413","J=YES, F=NO","y6dooonvlk","0","63","75","50","","","","","","","","","tug","pattern","filler","filler","j","false","",""
"null","<p style=""font-size: 50px;"">+</p>","null","html-keyboard-response","236","2.1.0","717725","J=YES, F=NO","y6dooonvlk","0","63","75","50","","","","","","","","","","","","","","","",""
"null","audio/beep-329314.mp3","null","audio-keyboard-response","237","2.1.0","719252","J=YES, F=NO","y6dooonvlk","0","63","75","50","","","","","","","","","","","","","","","",""
"null","audio/beach1.wav","null","audio-keyboard-response","238","2.1.0","719872","J=YES, F=NO","y6dooonvlk","0","63","75","50","","","","","","","","","","","","","","","",""
"468","
          <p id=""word"" style=""font-size: 40px;"">drive</p>
          <p style=""font-size: 16px;"">J = YES &nbsp;&nbsp;&nbsp; F = NO</p>
        ","j","html-keyboard-response","239","2.1.0","720341","J=YES, F=NO","y6dooonvlk","0","63","75","50","","","","","","","","","drive","beach1","filler","filler","j","true","",""
"null","<p style=""font-size: 50px;"">+</p>","null","html-keyboard-response","240","2.1.0","720650","J=YES, F=NO","y6dooonvlk","0","63","75","50","","","","","","","","","","","","","","","",""
"null","audio/beep-329314.mp3","null","audio-keyboard-response","241","2.1.0","722173","J=YES, F=NO","y6dooonvlk","0","63","75","50","","","","","","","","","","","","","","","",""
"null","audio/life1.wav","null","audio-keyboard-response","242","2.1.0","722773","J=YES, F=NO","y6dooonvlk","0","63","75","50","","","","","","","","","","","","","","","",""
"861","
          <p id=""word"" style=""font-size: 40px;"">flimch</p>
          <p style=""font-size: 16px;"">J = YES &nbsp;&nbsp;&nbsp; F = NO</p>
        ","f","html-keyboard-response","243","2.1.0","723636","J=YES, F=NO","y6dooonvlk","0","63","75","50","","","","","","","","","flimch","life1","pseudoword","pseudoword","f","true","",""
"null","<p style=""font-size: 50px;"">+</p>","null","html-keyboard-response","244","2.1.0","723948","J=YES, F=NO","y6dooonvlk","0","63","75","50","","","","","","","","","","","","","","","",""
"null","audio/beep-329314.mp3","null","audio-keyboard-response","245","2.1.0","725472","J=YES, F=NO","y6dooonvlk","0","63","75","50","","","","","","","","","","","","","","","",""
"null","audio/promise1.wav","null","audio-keyboard-response","246","2.1.0","726155","J=YES, F=NO","y6dooonvlk","0","63","75","50","","","","","","","","","","","","","","","",""
"506","
          <p id=""word"" style=""font-size: 40px;"">break</p>
          <p style=""font-size: 16px;"">J = YES &nbsp;&nbsp;&nbsp; F = NO</p>
        ","j","html-keyboard-response","247","2.1.0","726664","J=YES, F=NO","y6dooonvlk","0","63","75","50","","","","","","","","","break","promise1","metaphor","experimental","j","true","",""
"null","<p style=""font-size: 50px;"">+</p>","null","html-keyboard-response","248","2.1.0","726974","J=YES, F=NO","y6dooonvlk","0","63","75","50","","","","","","","","","","","","","","","",""
"null","audio/beep-329314.mp3","null","audio-keyboard-response","249","2.1.0","728512","J=YES, F=NO","y6dooonvlk","0","63","75","50","","","","","","","","","","","","","","","",""
"null","audio/radio1.wav","null","audio-keyboard-response","250","2.1.0","729133","J=YES, F=NO","y6dooonvlk","0","63","75","50","","","","","","","","","","","","","","","",""
"885","
          <p id=""word"" style=""font-size: 40px;"">blanter</p>
          <p style=""font-size: 16px;"">J = YES &nbsp;&nbsp;&nbsp; F = NO</p>
        ","f","html-keyboard-response","251","2.1.0","730020","J=YES, F=NO","y6dooonvlk","0","63","75","50","","","","","","","","","blanter","radio1","pseudoword","pseudoword","f","true","",""
"null","<p style=""font-size: 50px;"">+</p>","null","html-keyboard-response","252","2.1.0","730326","J=YES, F=NO","y6dooonvlk","0","63","75","50","","","","","","","","","","","","","","","",""
"null","audio/beep-329314.mp3","null","audio-keyboard-response","253","2.1.0","731853","J=YES, F=NO","y6dooonvlk","0","63","75","50","","","","","","","","","","","","","","","",""
"null","audio/client1.wav","null","audio-keyboard-response","254","2.1.0","732573","J=YES, F=NO","y6dooonvlk","0","63","75","50","","","","","","","","","","","","","","","",""
"1093","
          <p id=""word"" style=""font-size: 40px;"">droothe</p>
          <p style=""font-size: 16px;"">J = YES &nbsp;&nbsp;&nbsp; F = NO</p>
        ","j","html-keyboard-response","255","2.1.0","733668","J=YES, F=NO","y6dooonvlk","0","63","75","50","","","","","","","","","droothe","client1","pseudoword","pseudoword","f","false","",""
"null","<p style=""font-size: 50px;"">+</p>","null","html-keyboard-response","256","2.1.0","733984","J=YES, F=NO","y6dooonvlk","0","63","75","50","","","","","","","","","","","","","","","",""
"null","audio/beep-329314.mp3","null","audio-keyboard-response","257","2.1.0","735512","J=YES, F=NO","y6dooonvlk","0","63","75","50","","","","","","","","","","","","","","","",""
"null","audio/hotel1.wav","null","audio-keyboard-response","258","2.1.0","736132","J=YES, F=NO","y6dooonvlk","0","63","75","50","","","","","","","","","","","","","","","",""
"686","
          <p id=""word"" style=""font-size: 40px;"">spread</p>
          <p style=""font-size: 16px;"">J = YES &nbsp;&nbsp;&nbsp; F = NO</p>
        ","j","html-keyboard-response","259","2.1.0","736819","J=YES, F=NO","y6dooonvlk","0","63","75","50","","","","","","","","","spread","hotel1","unrelated","experimental","j","true","",""
"null","<p style=""font-size: 50px;"">+</p>","null","html-keyboard-response","260","2.1.0","737134","J=YES, F=NO","y6dooonvlk","0","63","75","50","","","","","","","","","","","","","","","",""
"null","audio/beep-329314.mp3","null","audio-keyboard-response","261","2.1.0","738672","J=YES, F=NO","y6dooonvlk","0","63","75","50","","","","","","","","","","","","","","","",""
"null","audio/neck.wav","null","audio-keyboard-response","262","2.1.0","739413","J=YES, F=NO","y6dooonvlk","0","63","75","50","","","","","","","","","","","","","","","",""
"581","
          <p id=""word"" style=""font-size: 40px;"">share</p>
          <p style=""font-size: 16px;"">J = YES &nbsp;&nbsp;&nbsp; F = NO</p>
        ","j","html-keyboard-response","263","2.1.0","739996","J=YES, F=NO","y6dooonvlk","0","63","75","50","","","","","","","","","share","neck","unrelated","experimental","j","true","",""
"null","<p style=""font-size: 50px;"">+</p>","null","html-keyboard-response","264","2.1.0","740302","J=YES, F=NO","y6dooonvlk","0","63","75","50","","","","","","","","","","","","","","","",""
"null","audio/beep-329314.mp3","null","audio-keyboard-response","265","2.1.0","741837","J=YES, F=NO","y6dooonvlk","0","63","75","50","","","","","","","","","","","","","","","",""
"null","audio/age1.wav","null","audio-keyboard-response","266","2.1.0","742572","J=YES, F=NO","y6dooonvlk","0","63","75","50","","","","","","","","","","","","","","","",""
"555","
          <p id=""word"" style=""font-size: 40px;"">bake</p>
          <p style=""font-size: 16px;"">J = YES &nbsp;&nbsp;&nbsp; F = NO</p>
        ","j","html-keyboard-response","267","2.1.0","743130","J=YES, F=NO","y6dooonvlk","0","63","75","50","","","","","","","","","bake","age1","filler","filler","j","true","",""
"null","<p style=""font-size: 50px;"">+</p>","null","html-keyboard-response","268","2.1.0","743445","J=YES, F=NO","y6dooonvlk","0","63","75","50","","","","","","","","","","","","","","","",""
"null","audio/beep-329314.mp3","null","audio-keyboard-response","269","2.1.0","744973","J=YES, F=NO","y6dooonvlk","0","63","75","50","","","","","","","","","","","","","","","",""
"null","audio/haste1.wav","null","audio-keyboard-response","270","2.1.0","745733","J=YES, F=NO","y6dooonvlk","0","63","75","50","","","","","","","","","","","","","","","",""
"1117","
          <p id=""word"" style=""font-size: 40px;"">coraconate</p>
          <p style=""font-size: 16px;"">J = YES &nbsp;&nbsp;&nbsp; F = NO</p>
        ","j","html-keyboard-response","271","2.1.0","746852","J=YES, F=NO","y6dooonvlk","0","63","75","50","","","","","","","","","coraconate","haste1","pseudoword","pseudoword","f","false","",""
"null","<p style=""font-size: 50px;"">+</p>","null","html-keyboard-response","272","2.1.0","747158","J=YES, F=NO","y6dooonvlk","0","63","75","50","","","","","","","","","","","","","","","",""
"null","audio/beep-329314.mp3","null","audio-keyboard-response","273","2.1.0","748693","J=YES, F=NO","y6dooonvlk","0","63","75","50","","","","","","","","","","","","","","","",""
"null","audio/devil1.wav","null","audio-keyboard-response","274","2.1.0","749112","J=YES, F=NO","y6dooonvlk","0","63","75","50","","","","","","","","","","","","","","","",""
"531","
          <p id=""word"" style=""font-size: 40px;"">carry</p>
          <p style=""font-size: 16px;"">J = YES &nbsp;&nbsp;&nbsp; F = NO</p>
        ","j","html-keyboard-response","275","2.1.0","749645","J=YES, F=NO","y6dooonvlk","0","63","75","50","","","","","","","","","carry","devil1","unrelated","experimental","j","true","",""
"null","<p style=""font-size: 50px;"">+</p>","null","html-keyboard-response","276","2.1.0","749950","J=YES, F=NO","y6dooonvlk","0","63","75","50","","","","","","","","","","","","","","","",""
"null","audio/beep-329314.mp3","null","audio-keyboard-response","277","2.1.0","751472","J=YES, F=NO","y6dooonvlk","0","63","75","50","","","","","","","","","","","","","","","",""
"null","audio/cave1.wav","null","audio-keyboard-response","278","2.1.0","752213","J=YES, F=NO","y6dooonvlk","0","63","75","50","","","","","","","","","","","","","","","",""
"403","
          <p id=""word"" style=""font-size: 40px;"">hurt</p>
          <p style=""font-size: 16px;"">J = YES &nbsp;&nbsp;&nbsp; F = NO</p>
        ","j","html-keyboard-response","279","2.1.0","752618","J=YES, F=NO","y6dooonvlk","0","63","75","50","","","","","","","","","hurt","cave1","unrelated","experimental","j","true","",""
"null","<p style=""font-size: 50px;"">+</p>","null","html-keyboard-response","280","2.1.0","752921","J=YES, F=NO","y6dooonvlk","0","63","75","50","","","","","","","","","","","","","","","",""
"null","audio/beep-329314.mp3","null","audio-keyboard-response","281","2.1.0","754453","J=YES, F=NO","y6dooonvlk","0","63","75","50","","","","","","","","","","","","","","","",""
"null","audio/age1.wav","null","audio-keyboard-response","282","2.1.0","754993","J=YES, F=NO","y6dooonvlk","0","63","75","50","","","","","","","","","","","","","","","",""
"722","
          <p id=""word"" style=""font-size: 40px;"">lachry</p>
          <p style=""font-size: 16px;"">J = YES &nbsp;&nbsp;&nbsp; F = NO</p>
        ","f","html-keyboard-response","283","2.1.0","755717","J=YES, F=NO","y6dooonvlk","0","63","75","50","","","","","","","","","lachry","age1","pseudoword","pseudoword","f","true","",""
"null","<p style=""font-size: 50px;"">+</p>","null","html-keyboard-response","284","2.1.0","756026","J=YES, F=NO","y6dooonvlk","0","63","75","50","","","","","","","","","","","","","","","",""
"null","audio/beep-329314.mp3","null","audio-keyboard-response","285","2.1.0","757552","J=YES, F=NO","y6dooonvlk","0","63","75","50","","","","","","","","","","","","","","","",""
"null","audio/test1.wav","null","audio-keyboard-response","286","2.1.0","758292","J=YES, F=NO","y6dooonvlk","0","63","75","50","","","","","","","","","","","","","","","",""
"788","
          <p id=""word"" style=""font-size: 40px;"">twopch</p>
          <p style=""font-size: 16px;"">J = YES &nbsp;&nbsp;&nbsp; F = NO</p>
        ","f","html-keyboard-response","287","2.1.0","759082","J=YES, F=NO","y6dooonvlk","0","63","75","50","","","","","","","","","twopch","test1","pseudoword","pseudoword","f","true","",""
"null","<p style=""font-size: 50px;"">+</p>","null","html-keyboard-response","288","2.1.0","759397","J=YES, F=NO","y6dooonvlk","0","63","75","50","","","","","","","","","","","","","","","",""
"null","audio/beep-329314.mp3","null","audio-keyboard-response","289","2.1.0","760932","J=YES, F=NO","y6dooonvlk","0","63","75","50","","","","","","","","","","","","","","","",""
"null","audio/topic.wav","null","audio-keyboard-response","290","2.1.0","761692","J=YES, F=NO","y6dooonvlk","0","63","75","50","","","","","","","","","","","","","","","",""
"600","
          <p id=""word"" style=""font-size: 40px;"">approach</p>
          <p style=""font-size: 16px;"">J = YES &nbsp;&nbsp;&nbsp; F = NO</p>
        ","j","html-keyboard-response","291","2.1.0","762294","J=YES, F=NO","y6dooonvlk","0","63","75","50","","","","","","","","","approach","topic","metaphor","experimental","j","true","",""
"null","<p style=""font-size: 50px;"">+</p>","null","html-keyboard-response","292","2.1.0","762602","J=YES, F=NO","y6dooonvlk","0","63","75","50","","","","","","","","","","","","","","","",""
"null","audio/beep-329314.mp3","null","audio-keyboard-response","293","2.1.0","764134","J=YES, F=NO","y6dooonvlk","0","63","75","50","","","","","","","","","","","","","","","",""
"null","audio/novel.wav","null","audio-keyboard-response","294","2.1.0","764614","J=YES, F=NO","y6dooonvlk","0","63","75","50","","","","","","","","","","","","","","","",""
"955","
          <p id=""word"" style=""font-size: 40px;"">devour</p>
          <p style=""font-size: 16px;"">J = YES &nbsp;&nbsp;&nbsp; F = NO</p>
        ","j","html-keyboard-response","295","2.1.0","765570","J=YES, F=NO","y6dooonvlk","0","63","75","50","","","","","","","","","devour","novel","metaphor","experimental","j","true","",""
"1597","<p>Excellent! You have finished block 2 of 8.</p>
                     <p>Feel free to take a 30 second break.</p>
                     <p>Press any key when you're ready to continue.</p>"," ","html-keyboard-response","296","2.1.0","767169","J=YES, F=NO","y6dooonvlk","0","63","75","50","","","","","","","","","","","","","","","",""
"1232","<p>Starting main block 3 of 8. Press any key to continue.</p>"," ","html-keyboard-response","297","2.1.0","768402","J=YES, F=NO","y6dooonvlk","0","63","75","50","","","","","","","","","","","","","","","",""
"null","<p style=""font-size: 50px;"">+</p>","null","html-keyboard-response","298","2.1.0","768716","J=YES, F=NO","y6dooonvlk","0","63","75","50","","","","","","","","","","","","","","","",""
"null","audio/beep-329314.mp3","null","audio-keyboard-response","299","2.1.0","770253","J=YES, F=NO","y6dooonvlk","0","63","75","50","","","","","","","","","","","","","","","",""
"null","audio/arm.wav","null","audio-keyboard-response","300","2.1.0","770993","J=YES, F=NO","y6dooonvlk","0","63","75","50","","","","","","","","","","","","","","","",""
"480","
          <p id=""word"" style=""font-size: 40px;"">fold</p>
          <p style=""font-size: 16px;"">J = YES &nbsp;&nbsp;&nbsp; F = NO</p>
        ","j","html-keyboard-response","301","2.1.0","771475","J=YES, F=NO","y6dooonvlk","0","63","75","50","","","","","","","","","fold","arm","filler","filler","j","true","",""
"null","<p style=""font-size: 50px;"">+</p>","null","html-keyboard-response","302","2.1.0","771791","J=YES, F=NO","y6dooonvlk","0","63","75","50","","","","","","","","","","","","","","","",""
"null","audio/beep-329314.mp3","null","audio-keyboard-response","303","2.1.0","773333","J=YES, F=NO","y6dooonvlk","0","63","75","50","","","","","","","","","","","","","","","",""
"null","audio/smirk1.wav","null","audio-keyboard-response","304","2.1.0","774252","J=YES, F=NO","y6dooonvlk","0","63","75","50","","","","","","","","","","","","","","","",""
"587","
          <p id=""word"" style=""font-size: 40px;"">snopt</p>
          <p style=""font-size: 16px;"">J = YES &nbsp;&nbsp;&nbsp; F = NO</p>
        ","f","html-keyboard-response","305","2.1.0","774842","J=YES, F=NO","y6dooonvlk","0","63","75","50","","","","","","","","","snopt","smirk1","pseudoword","pseudoword","f","true","",""
"null","<p style=""font-size: 50px;"">+</p>","null","html-keyboard-response","306","2.1.0","775143","J=YES, F=NO","y6dooonvlk","0","63","75","50","","","","","","","","","","","","","","","",""
"null","audio/beep-329314.mp3","null","audio-keyboard-response","307","2.1.0","776672","J=YES, F=NO","y6dooonvlk","0","63","75","50","","","","","","","","","","","","","","","",""
"null","audio/seat.wav","null","audio-keyboard-response","308","2.1.0","777593","J=YES, F=NO","y6dooonvlk","0","63","75","50","","","","","","","","","","","","","","","",""
"578","
          <p id=""word"" style=""font-size: 40px;"">digest</p>
          <p style=""font-size: 16px;"">J = YES &nbsp;&nbsp;&nbsp; F = NO</p>
        ","j","html-keyboard-response","309","2.1.0","778173","J=YES, F=NO","y6dooonvlk","0","63","75","50","","","","","","","","","digest","seat","unrelated","experimental","j","true","",""
"null","<p style=""font-size: 50px;"">+</p>","null","html-keyboard-response","310","2.1.0","778482","J=YES, F=NO","y6dooonvlk","0","63","75","50","","","","","","","","","","","","","","","",""
"null","audio/beep-329314.mp3","null","audio-keyboard-response","311","2.1.0","780013","J=YES, F=NO","y6dooonvlk","0","63","75","50","","","","","","","","","","","","","","","",""
"null","audio/sand.wav","null","audio-keyboard-response","312","2.1.0","780653","J=YES, F=NO","y6dooonvlk","0","63","75","50","","","","","","","","","","","","","","","",""
"536","
          <p id=""word"" style=""font-size: 40px;"">possess</p>
          <p style=""font-size: 16px;"">J = YES &nbsp;&nbsp;&nbsp; F = NO</p>
        ","j","html-keyboard-response","313","2.1.0","781192","J=YES, F=NO","y6dooonvlk","0","63","75","50","","","","","","","","","possess","sand","unrelated","experimental","j","true","",""
"null","<p style=""font-size: 50px;"">+</p>","null","html-keyboard-response","314","2.1.0","781508","J=YES, F=NO","y6dooonvlk","0","63","75","50","","","","","","","","","","","","","","","",""
"null","audio/beep-329314.mp3","null","audio-keyboard-response","315","2.1.0","783032","J=YES, F=NO","y6dooonvlk","0","63","75","50","","","","","","","","","","","","","","","",""
"null","audio/van1.wav","null","audio-keyboard-response","316","2.1.0","783813","J=YES, F=NO","y6dooonvlk","0","63","75","50","","","","","","","","","","","","","","","",""
"580","
          <p id=""word"" style=""font-size: 40px;"">push</p>
          <p style=""font-size: 16px;"">J = YES &nbsp;&nbsp;&nbsp; F = NO</p>
        ","j","html-keyboard-response","317","2.1.0","784394","J=YES, F=NO","y6dooonvlk","0","63","75","50","","","","","","","","","push","van1","filler","filler","j","true","",""
"null","<p style=""font-size: 50px;"">+</p>","null","html-keyboard-response","318","2.1.0","784704","J=YES, F=NO","y6dooonvlk","0","63","75","50","","","","","","","","","","","","","","","",""
"null","audio/beep-329314.mp3","null","audio-keyboard-response","319","2.1.0","786233","J=YES, F=NO","y6dooonvlk","0","63","75","50","","","","","","","","","","","","","","","",""
"null","audio/bomb1.wav","null","audio-keyboard-response","320","2.1.0","786613","J=YES, F=NO","y6dooonvlk","0","63","75","50","","","","","","","","","","","","","","","",""
"948","
          <p id=""word"" style=""font-size: 40px;"">drop</p>
          <p style=""font-size: 16px;"">J = YES &nbsp;&nbsp;&nbsp; F = NO</p>
        ","j","html-keyboard-response","321","2.1.0","787564","J=YES, F=NO","y6dooonvlk","0","63","75","50","","","","","","","","","drop","bomb1","literal","experimental","j","true","",""
"null","<p style=""font-size: 50px;"">+</p>","null","html-keyboard-response","322","2.1.0","787865","J=YES, F=NO","y6dooonvlk","0","63","75","50","","","","","","","","","","","","","","","",""
"null","audio/beep-329314.mp3","null","audio-keyboard-response","323","2.1.0","789392","J=YES, F=NO","y6dooonvlk","0","63","75","50","","","","","","","","","","","","","","","",""
"null","audio/butter1.wav","null","audio-keyboard-response","324","2.1.0","790013","J=YES, F=NO","y6dooonvlk","0","63","75","50","","","","","","","","","","","","","","","",""
"717","
          <p id=""word"" style=""font-size: 40px;"">chew</p>
          <p style=""font-size: 16px;"">J = YES &nbsp;&nbsp;&nbsp; F = NO</p>
        ","j","html-keyboard-response","325","2.1.0","790733","J=YES, F=NO","y6dooonvlk","0","63","75","50","","","","","","","","","chew","butter1","filler","filler","j","true","",""
"null","<p style=""font-size: 50px;"">+</p>","null","html-keyboard-response","326","2.1.0","791048","J=YES, F=NO","y6dooonvlk","0","63","75","50","","","","","","","","","","","","","","","",""
"null","audio/beep-329314.mp3","null","audio-keyboard-response","327","2.1.0","792572","J=YES, F=NO","y6dooonvlk","0","63","75","50","","","","","","","","","","","","","","","",""
"null","audio/foot1.wav","null","audio-keyboard-response","328","2.1.0","793412","J=YES, F=NO","y6dooonvlk","0","63","75","50","","","","","","","","","","","","","","","",""
"820","
          <p id=""word"" style=""font-size: 40px;"">thrutt</p>
          <p style=""font-size: 16px;"">J = YES &nbsp;&nbsp;&nbsp; F = NO</p>
        ","f","html-keyboard-response","329","2.1.0","794234","J=YES, F=NO","y6dooonvlk","0","63","75","50","","","","","","","","","thrutt","foot1","pseudoword","pseudoword","f","true","",""
"null","<p style=""font-size: 50px;"">+</p>","null","html-keyboard-response","330","2.1.0","794546","J=YES, F=NO","y6dooonvlk","0","63","75","50","","","","","","","","","","","","","","","",""
"null","audio/beep-329314.mp3","null","audio-keyboard-response","331","2.1.0","796074","J=YES, F=NO","y6dooonvlk","0","63","75","50","","","","","","","","","","","","","","","",""
"null","audio/cinema1.wav","null","audio-keyboard-response","332","2.1.0","796872","J=YES, F=NO","y6dooonvlk","0","63","75","50","","","","","","","","","","","","","","","",""
"970","
          <p id=""word"" style=""font-size: 40px;"">murple</p>
          <p style=""font-size: 16px;"">J = YES &nbsp;&nbsp;&nbsp; F = NO</p>
        ","f","html-keyboard-response","333","2.1.0","797844","J=YES, F=NO","y6dooonvlk","0","63","75","50","","","","","","","","","murple","cinema1","pseudoword","pseudoword","f","true","",""
"null","<p style=""font-size: 50px;"">+</p>","null","html-keyboard-response","334","2.1.0","798146","J=YES, F=NO","y6dooonvlk","0","63","75","50","","","","","","","","","","","","","","","",""
"null","audio/beep-329314.mp3","null","audio-keyboard-response","335","2.1.0","799673","J=YES, F=NO","y6dooonvlk","0","63","75","50","","","","","","","","","","","","","","","",""
"null","audio/foe1.wav","null","audio-keyboard-response","336","2.1.0","800393","J=YES, F=NO","y6dooonvlk","0","63","75","50","","","","","","","","","","","","","","","",""
"883","
          <p id=""word"" style=""font-size: 40px;"">creth</p>
          <p style=""font-size: 16px;"">J = YES &nbsp;&nbsp;&nbsp; F = NO</p>
        ","f","html-keyboard-response","337","2.1.0","801277","J=YES, F=NO","y6dooonvlk","0","63","75","50","","","","","","","","","creth","foe1","pseudoword","pseudoword","f","true","",""
"null","<p style=""font-size: 50px;"">+</p>","null","html-keyboard-response","338","2.1.0","801586","J=YES, F=NO","y6dooonvlk","0","63","75","50","","","","","","","","","","","","","","","",""
"null","audio/beep-329314.mp3","null","audio-keyboard-response","339","2.1.0","803113","J=YES, F=NO","y6dooonvlk","0","63","75","50","","","","","","","","","","","","","","","",""
"null","audio/golf1.wav","null","audio-keyboard-response","340","2.1.0","803873","J=YES, F=NO","y6dooonvlk","0","63","75","50","","","","","","","","","","","","","","","",""
"1441","
          <p id=""word"" style=""font-size: 40px;"">drabble</p>
          <p style=""font-size: 16px;"">J = YES &nbsp;&nbsp;&nbsp; F = NO</p>
        ","j","html-keyboard-response","341","2.1.0","805317","J=YES, F=NO","y6dooonvlk","0","63","75","50","","","","","","","","","drabble","golf1","pseudoword","pseudoword","f","false","",""
"null","<p style=""font-size: 50px;"">+</p>","null","html-keyboard-response","342","2.1.0","805619","J=YES, F=NO","y6dooonvlk","0","63","75","50","","","","","","","","","","","","","","","",""
"null","audio/beep-329314.mp3","null","audio-keyboard-response","343","2.1.0","807153","J=YES, F=NO","y6dooonvlk","0","63","75","50","","","","","","","","","","","","","","","",""
"null","audio/cloud1.wav","null","audio-keyboard-response","344","2.1.0","807973","J=YES, F=NO","y6dooonvlk","0","63","75","50","","","","","","","","","","","","","","","",""
"1112","
          <p id=""word"" style=""font-size: 40px;"">brotant</p>
          <p style=""font-size: 16px;"">J = YES &nbsp;&nbsp;&nbsp; F = NO</p>
        ","f","html-keyboard-response","345","2.1.0","809087","J=YES, F=NO","y6dooonvlk","0","63","75","50","","","","","","","","","brotant","cloud1","pseudoword","pseudoword","f","true","",""
"null","<p style=""font-size: 50px;"">+</p>","null","html-keyboard-response","346","2.1.0","809391","J=YES, F=NO","y6dooonvlk","0","63","75","50","","","","","","","","","","","","","","","",""
"null","audio/beep-329314.mp3","null","audio-keyboard-response","347","2.1.0","810933","J=YES, F=NO","y6dooonvlk","0","63","75","50","","","","","","","","","","","","","","","",""
"null","audio/effort.wav","null","audio-keyboard-response","348","2.1.0","811773","J=YES, F=NO","y6dooonvlk","0","63","75","50","","","","","","","","","","","","","","","",""
"786","
          <p id=""word"" style=""font-size: 40px;"">whonk</p>
          <p style=""font-size: 16px;"">J = YES &nbsp;&nbsp;&nbsp; F = NO</p>
        ","f","html-keyboard-response","349","2.1.0","812561","J=YES, F=NO","y6dooonvlk","0","63","75","50","","","","","","","","","whonk","effort","pseudoword","pseudoword","f","true","",""
"null","<p style=""font-size: 50px;"">+</p>","null","html-keyboard-response","350","2.1.0","812866","J=YES, F=NO","y6dooonvlk","0","63","75","50","","","","","","","","","","","","","","","",""
"null","audio/beep-329314.mp3","null","audio-keyboard-response","351","2.1.0","814393","J=YES, F=NO","y6dooonvlk","0","63","75","50","","","","","","","","","","","","","","","",""
"null","audio/pig.wav","null","audio-keyboard-response","352","2.1.0","814812","J=YES, F=NO","y6dooonvlk","0","63","75","50","","","","","","","","","","","","","","","",""
"815","
          <p id=""word"" style=""font-size: 40px;"">tirlike</p>
          <p style=""font-size: 16px;"">J = YES &nbsp;&nbsp;&nbsp; F = NO</p>
        ","f","html-keyboard-response","353","2.1.0","815629","J=YES, F=NO","y6dooonvlk","0","63","75","50","","","","","","","","","tirlike","pig","pseudoword","pseudoword","f","true","",""
"null","<p style=""font-size: 50px;"">+</p>","null","html-keyboard-response","354","2.1.0","815936","J=YES, F=NO","y6dooonvlk","0","63","75","50","","","","","","","","","","","","","","","",""
"null","audio/beep-329314.mp3","null","audio-keyboard-response","355","2.1.0","817473","J=YES, F=NO","y6dooonvlk","0","63","75","50","","","","","","","","","","","","","","","",""
"null","audio/topic.wav","null","audio-keyboard-response","356","2.1.0","818032","J=YES, F=NO","y6dooonvlk","0","63","75","50","","","","","","","","","","","","","","","",""
"1019","
          <p id=""word"" style=""font-size: 40px;"">infortuitist</p>
          <p style=""font-size: 16px;"">J = YES &nbsp;&nbsp;&nbsp; F = NO</p>
        ","j","html-keyboard-response","357","2.1.0","819053","J=YES, F=NO","y6dooonvlk","0","63","75","50","","","","","","","","","infortuitist","topic","pseudoword","pseudoword","f","false","",""
"null","<p style=""font-size: 50px;"">+</p>","null","html-keyboard-response","358","2.1.0","819369","J=YES, F=NO","y6dooonvlk","0","63","75","50","","","","","","","","","","","","","","","",""
"null","audio/beep-329314.mp3","null","audio-keyboard-response","359","2.1.0","820893","J=YES, F=NO","y6dooonvlk","0","63","75","50","","","","","","","","","","","","","","","",""
"null","audio/plot1.wav","null","audio-keyboard-response","360","2.1.0","821753","J=YES, F=NO","y6dooonvlk","0","63","75","50","","","","","","","","","","","","","","","",""
"781","
          <p id=""word"" style=""font-size: 40px;"">weave</p>
          <p style=""font-size: 16px;"">J = YES &nbsp;&nbsp;&nbsp; F = NO</p>
        ","j","html-keyboard-response","361","2.1.0","822536","J=YES, F=NO","y6dooonvlk","0","63","75","50","","","","","","","","","weave","plot1","metaphor","experimental","j","true","",""
"2132","<p>Excellent! You have finished block 3 of 8.</p>
                     <p>Feel free to take a 30 second break.</p>
                     <p>Press any key when you're ready to continue.</p>","AudioVolumeUp","html-keyboard-response","362","2.1.0","824669","J=YES, F=NO","y6dooonvlk","0","63","75","50","","","","","","","","","","","","","","","",""
"1788","<p>Starting main block 4 of 8. Press any key to continue.</p>"," ","html-keyboard-response","363","2.1.0","826459","J=YES, F=NO","y6dooonvlk","0","63","75","50","","","","","","","","","","","","","","","",""
"null","<p style=""font-size: 50px;"">+</p>","null","html-keyboard-response","364","2.1.0","826774","J=YES, F=NO","y6dooonvlk","0","63","75","50","","","","","","","","","","","","","","","",""
"null","audio/beep-329314.mp3","null","audio-keyboard-response","365","2.1.0","828313","J=YES, F=NO","y6dooonvlk","0","63","75","50","","","","","","","","","","","","","","","",""
"null","audio/client1.wav","null","audio-keyboard-response","366","2.1.0","828992","J=YES, F=NO","y6dooonvlk","0","63","75","50","","","","","","","","","","","","","","","",""
"515","
          <p id=""word"" style=""font-size: 40px;"">land</p>
          <p style=""font-size: 16px;"">J = YES &nbsp;&nbsp;&nbsp; F = NO</p>
        ","j","html-keyboard-response","367","2.1.0","829509","J=YES, F=NO","y6dooonvlk","0","63","75","50","","","","","","","","","land","client1","metaphor","experimental","j","true","",""
"null","<p style=""font-size: 50px;"">+</p>","null","html-keyboard-response","368","2.1.0","829811","J=YES, F=NO","y6dooonvlk","0","63","75","50","","","","","","","","","","","","","","","",""
"null","audio/beep-329314.mp3","null","audio-keyboard-response","369","2.1.0","831352","J=YES, F=NO","y6dooonvlk","0","63","75","50","","","","","","","","","","","","","","","",""
"null","audio/church1.wav","null","audio-keyboard-response","370","2.1.0","832233","J=YES, F=NO","y6dooonvlk","0","63","75","50","","","","","","","","","","","","","","","",""
"522","
          <p id=""word"" style=""font-size: 40px;"">cover</p>
          <p style=""font-size: 16px;"">J = YES &nbsp;&nbsp;&nbsp; F = NO</p>
        ","j","html-keyboard-response","371","2.1.0","832756","J=YES, F=NO","y6dooonvlk","0","63","75","50","","","","","","","","","cover","church1","unrelated","experimental","j","true","",""
"null","<p style=""font-size: 50px;"">+</p>","null","html-keyboard-response","372","2.1.0","833060","J=YES, F=NO","y6dooonvlk","0","63","75","50","","","","","","","","","","","","","","","",""
"null","audio/beep-329314.mp3","null","audio-keyboard-response","373","2.1.0","834592","J=YES, F=NO","y6dooonvlk","0","63","75","50","","","","","","","","","","","","","","","",""
"null","audio/purpose.wav","null","audio-keyboard-response","374","2.1.0","835433","J=YES, F=NO","y6dooonvlk","0","63","75","50","","","","","","","","","","","","","","","",""
"1419","
          <p id=""word"" style=""font-size: 40px;"">whigm</p>
          <p style=""font-size: 16px;"">J = YES &nbsp;&nbsp;&nbsp; F = NO</p>
        ","f","html-keyboard-response","375","2.1.0","836853","J=YES, F=NO","y6dooonvlk","0","63","75","50","","","","","","","","","whigm","purpose","pseudoword","pseudoword","f","true","",""
"null","<p style=""font-size: 50px;"">+</p>","null","html-keyboard-response","376","2.1.0","837161","J=YES, F=NO","y6dooonvlk","0","63","75","50","","","","","","","","","","","","","","","",""
"null","audio/beep-329314.mp3","null","audio-keyboard-response","377","2.1.0","838693","J=YES, F=NO","y6dooonvlk","0","63","75","50","","","","","","","","","","","","","","","",""
"null","audio/trout1.wav","null","audio-keyboard-response","378","2.1.0","839513","J=YES, F=NO","y6dooonvlk","0","63","75","50","","","","","","","","","","","","","","","",""
"990","
          <p id=""word"" style=""font-size: 40px;"">spimt</p>
          <p style=""font-size: 16px;"">J = YES &nbsp;&nbsp;&nbsp; F = NO</p>
        ","f","html-keyboard-response","379","2.1.0","840504","J=YES, F=NO","y6dooonvlk","0","63","75","50","","","","","","","","","spimt","trout1","pseudoword","pseudoword","f","true","",""
"null","<p style=""font-size: 50px;"">+</p>","null","html-keyboard-response","380","2.1.0","840819","J=YES, F=NO","y6dooonvlk","0","63","75","50","","","","","","","","","","","","","","","",""
"null","audio/beep-329314.mp3","null","audio-keyboard-response","381","2.1.0","842357","J=YES, F=NO","y6dooonvlk","0","63","75","50","","","","","","","","","","","","","","","",""
"null","audio/terrain.wav","null","audio-keyboard-response","382","2.1.0","843113","J=YES, F=NO","y6dooonvlk","0","63","75","50","","","","","","","","","","","","","","","",""
"569","
          <p id=""word"" style=""font-size: 40px;"">twist</p>
          <p style=""font-size: 16px;"">J = YES &nbsp;&nbsp;&nbsp; F = NO</p>
        ","j","html-keyboard-response","383","2.1.0","843684","J=YES, F=NO","y6dooonvlk","0","63","75","50","","","","","","","","","twist","terrain","filler","filler","j","true","",""
"null","<p style=""font-size: 50px;"">+</p>","null","html-keyboard-response","384","2.1.0","843988","J=YES, F=NO","y6dooonvlk","0","63","75","50","","","","","","","","","","","","","","","",""
"null","audio/beep-329314.mp3","null","audio-keyboard-response","385","2.1.0","845513","J=YES, F=NO","y6dooonvlk","0","63","75","50","","","","","","","","","","","","","","","",""
"null","audio/dome.wav","null","audio-keyboard-response","386","2.1.0","845932","J=YES, F=NO","y6dooonvlk","0","63","75","50","","","","","","","","","","","","","","","",""
"970","
          <p id=""word"" style=""font-size: 40px;"">feed</p>
          <p style=""font-size: 16px;"">J = YES &nbsp;&nbsp;&nbsp; F = NO</p>
        ","j","html-keyboard-response","387","2.1.0","846903","J=YES, F=NO","y6dooonvlk","0","63","75","50","","","","","","","","","feed","dome","unrelated","experimental","j","true","",""
"null","<p style=""font-size: 50px;"">+</p>","null","html-keyboard-response","388","2.1.0","847217","J=YES, F=NO","y6dooonvlk","0","63","75","50","","","","","","","","","","","","","","","",""
"null","audio/beep-329314.mp3","null","audio-keyboard-response","389","2.1.0","848753","J=YES, F=NO","y6dooonvlk","0","63","75","50","","","","","","","","","","","","","","","",""
"null","audio/mirror1.wav","null","audio-keyboard-response","390","2.1.0","849214","J=YES, F=NO","y6dooonvlk","0","63","75","50","","","","","","","","","","","","","","","",""
"538","
          <p id=""word"" style=""font-size: 40px;"">fight</p>
          <p style=""font-size: 16px;"">J = YES &nbsp;&nbsp;&nbsp; F = NO</p>
