"rt","stimulus","response","trial_type","trial_index","plugin_version","time_elapsed","response_mapping","subject_id","list_index","lextale_score","lextale_word_score","lextale_nonword_score","success","timeout","failed_images","failed_audio","failed_video","task","isWord","isDummy","target","prime","prime_type","stimulus_type","correct_response","correct","section","question_order"
"8260","
    <div style=""max-width: 800px; margin: auto; text-align: left;"">
      <h2>STANFORD UNIVERSITY</h2>
      <h3>Research Information Sheet</h3>
      <p><strong>Protocol Director:</strong> Robert Hawkins<br>
      <strong>Protocol Title:</strong> Communication and social cognition in natural audiovisual contexts<br>
      <strong>IRB#:</strong> 77226</p>

      <p><strong>DESCRIPTION:</strong> You are invited to participate in a research study about language and communication. The purpose of the research is to understand how you interact and communicate with other people in naturalistic settings as a fluent English speaker. This research will be conducted through the Prolific platform, including participants from the US, UK, and Canada. If you decide to participate in this research, you will play a communication game in a group with one or more partners.</p>

      <p><strong>TIME INVOLVEMENT:</strong> The task will last the amount of time advertised on Prolific. You are free to withdraw from the study at any time.</p>

      <p><strong>RISKS AND BENEFITS:</strong> You may become frustrated if your partner gets distracted, or experience discomfort if other participants in your group send text that is inappropriate for the task. We ask you to please be respectful of other participants you might be interacting with to mitigate these risks. You may also experience discomfort when being asked to discuss or challenge emotionally salient political beliefs. Study data will be stored securely, in compliance with Stanford University standards, minimizing the risk of confidentiality breach. This study advances our scientific understanding of how people communicate and collaborate in naturalistic settings. This study may lead to further insights about what can go wrong in teamwork, suggest potential interventions to overcome these barriers, and help to develop assistive technologies that collaborate with human partners. We cannot and do not guarantee or promise that you will receive any benefits from this study.</p>

      <p><strong>PAYMENTS:</strong> You will receive payment in the amount advertised on Prolific. If you do not complete this study, you will receive prorated payment based on the time that you have spent. Additionally, you may be eligible for bonus payments as described in the instructions.</p>

      <p><strong>PARTICIPANT’S RIGHTS:</strong> If you have read this form and have decided to participate in this project, please understand your participation is voluntary and you have the right to withdraw your consent or discontinue participation at any time without penalty or loss of benefits to which you are otherwise entitled. The alternative is not to participate. You have the right to refuse to answer particular questions. The results of this research study may be presented at scientific or professional meetings or published in scientific journals. Your individual privacy will be maintained in all published and written data resulting from the study. In accordance with scientific norms, the data from this study may be used or shared with other researchers for future research (after removing personally identifying information) without additional consent from you.</p>

      <p><strong>CONTACT INFORMATION:</strong><br>
      Questions: If you have any questions, concerns or complaints about this research, its procedures, risks and benefits, contact the Protocol Director, Robert Hawkins (<a href=""mailto:rdhawkins@stanford.edu"">rdhawkins@stanford.edu</a>, 217-549-6923).<br>
      Independent Contact: If you are not satisfied with how this study is being conducted, or if you have any concerns, complaints, or general questions about the research or your rights as a participant, please contact the Stanford Institutional Review Board (IRB) to speak to someone independent of the research team at 650-723-2480 or toll free at 1-866-680-2906, or email at <a href=""mailto:irbnon-med@stanford.edu"">irbnon-med@stanford.edu</a>. You can also write to the Stanford IRB, Stanford University, 1705 El Camino Real, Palo Alto, CA 94306.</p>

      <p><strong>Please save or print a copy of this page for your records.</strong></p>
      <p>If you agree to participate in this research, click ""Continue"" below.</p>
    </div>
  ","0","html-button-response","0","2.1.0","8269","F=YES, J=NO","y9umytakqf","2","79","83","75","","","","","","","","","","","","","","","",""
"2183","
    <div style=""max-width: 800px; margin: auto; text-align: left;"">
      <h2>Welcome!</h2>
      <p>Thank you for participating in this study. The experiment consists of three parts:</p>
      <ol>
        <li>An English vocabulary test</li>
        <li>A main task in which you will hear and see words, and decide whether the written word is a real English word</li>
        <li>A brief survey about your background</li>
      </ol>
      <p>Each part will be introduced before it begins.</p>
      <p>Please make sure you are in a quiet environment and can hear audio clearly for the final task.</p>
      <p style=""margin-top: 2em;"">Press any key to begin.</p>
    </div>
  ","F11","html-keyboard-response","1","2.1.0","10454","F=YES, J=NO","y9umytakqf","2","79","83","75","","","","","","","","","","","","","","","",""
"","","","preload","2","2.1.0","13549","F=YES, J=NO","y9umytakqf","2","79","83","75","true","false","[]","[]","[]","","","","","","","","","","",""
"3698","
    <div style=""max-width: 800px; margin: auto; text-align: left;"">
      <h2>Part 1: Vocabulary Test</h2>
      <p>You will now complete the first part of the study: a short English vocabulary test.</p>
      <p>This test is called <strong>LexTALE</strong> and helps us get a general sense of your English proficiency.</p>
      <p style=""margin-top: 2em;"">Press any key to continue.</p>
    </div>
  ","s","html-keyboard-response","3","2.1.0","17248","F=YES, J=NO","y9umytakqf","2","79","83","75","","","","","","","","","","","","","","","",""
"2282","
    <div style=""max-width: 800px; margin: auto; text-align: left;"">
      <h2>LexTALE Vocabulary Test</h2>
      <p>In this test, you will see a series of letter strings—one at a time.</p>
      <p>Your task is to decide whether each string is a real English word.</p>
      <p><strong>Key responses:</strong></p>
      <ul>
        <li><strong>F</strong> = YES (real English word)</li>
        <li><strong>J</strong> = NO (not a real English word)</li>
      </ul>
      <p>There is no time limit, but please try to be accurate.</p>
      <p style=""margin-top: 2em;"">Press any key to begin.</p>
    </div>
  ","F11","html-keyboard-response","4","2.1.0","19532","F=YES, J=NO","y9umytakqf","2","79","83","75","","","","","","","","","","","","","","","",""
"2369","
  <p style=""font-size: 40px;"">platery</p>
  <p style=""font-size: 16px;"">F = YES &nbsp;&nbsp;&nbsp; J = NO</p>
","f","html-keyboard-response","5","2.1.0","21902","F=YES, J=NO","y9umytakqf","2","79","83","75","","","","","","lextale","false","true","","","","","","","",""
"2155","
  <p style=""font-size: 40px;"">denial</p>
  <p style=""font-size: 16px;"">F = YES &nbsp;&nbsp;&nbsp; J = NO</p>
","f","html-keyboard-response","6","2.1.0","24059","F=YES, J=NO","y9umytakqf","2","79","83","75","","","","","","lextale","true","true","","","","","","","",""
"1466","
  <p style=""font-size: 40px;"">marrit</p>
  <p style=""font-size: 16px;"">F = YES &nbsp;&nbsp;&nbsp; J = NO</p>
","j","html-keyboard-response","7","2.1.0","25526","F=YES, J=NO","y9umytakqf","2","79","83","75","","","","","","lextale","false","true","","","","","","","",""
"2050","
  <p style=""font-size: 40px;"">bottle</p>
  <p style=""font-size: 16px;"">F = YES &nbsp;&nbsp;&nbsp; J = NO</p>
","f","html-keyboard-response","8","2.1.0","27577","F=YES, J=NO","y9umytakqf","2","79","83","75","","","","","","lextale","true","false","","","","","","","",""
"1736","
  <p style=""font-size: 40px;"">birst</p>
  <p style=""font-size: 16px;"">F = YES &nbsp;&nbsp;&nbsp; J = NO</p>
","j","html-keyboard-response","9","2.1.0","29315","F=YES, J=NO","y9umytakqf","2","79","83","75","","","","","","lextale","false","false","","","","","","","",""
"884","
  <p style=""font-size: 40px;"">envy</p>
  <p style=""font-size: 16px;"">F = YES &nbsp;&nbsp;&nbsp; J = NO</p>
","f","html-keyboard-response","10","2.1.0","30200","F=YES, J=NO","y9umytakqf","2","79","83","75","","","","","","lextale","true","false","","","","","","","",""
"2974","
  <p style=""font-size: 40px;"">brang</p>
  <p style=""font-size: 16px;"">F = YES &nbsp;&nbsp;&nbsp; J = NO</p>
","j","html-keyboard-response","11","2.1.0","33175","F=YES, J=NO","y9umytakqf","2","79","83","75","","","","","","lextale","false","false","","","","","","","",""
"698","
  <p style=""font-size: 40px;"">huge</p>
  <p style=""font-size: 16px;"">F = YES &nbsp;&nbsp;&nbsp; J = NO</p>
","f","html-keyboard-response","12","2.1.0","33874","F=YES, J=NO","y9umytakqf","2","79","83","75","","","","","","lextale","true","false","","","","","","","",""
"2841","
  <p style=""font-size: 40px;"">plove</p>
  <p style=""font-size: 16px;"">F = YES &nbsp;&nbsp;&nbsp; J = NO</p>
","f","html-keyboard-response","13","2.1.0","36717","F=YES, J=NO","y9umytakqf","2","79","83","75","","","","","","lextale","false","false","","","","","","","",""
"660","
  <p style=""font-size: 40px;"">border</p>
  <p style=""font-size: 16px;"">F = YES &nbsp;&nbsp;&nbsp; J = NO</p>
","f","html-keyboard-response","14","2.1.0","37377","F=YES, J=NO","y9umytakqf","2","79","83","75","","","","","","lextale","true","false","","","","","","","",""
"805","
  <p style=""font-size: 40px;"">flimsy</p>
  <p style=""font-size: 16px;"">F = YES &nbsp;&nbsp;&nbsp; J = NO</p>
","f","html-keyboard-response","15","2.1.0","38184","F=YES, J=NO","y9umytakqf","2","79","83","75","","","","","","lextale","true","false","","","","","","","",""
"677","
  <p style=""font-size: 40px;"">drain</p>
  <p style=""font-size: 16px;"">F = YES &nbsp;&nbsp;&nbsp; J = NO</p>
","f","html-keyboard-response","16","2.1.0","38862","F=YES, J=NO","y9umytakqf","2","79","83","75","","","","","","lextale","true","false","","","","","","","",""
"1313","
  <p style=""font-size: 40px;"">twindle</p>
  <p style=""font-size: 16px;"">F = YES &nbsp;&nbsp;&nbsp; J = NO</p>
","j","html-keyboard-response","17","2.1.0","40176","F=YES, J=NO","y9umytakqf","2","79","83","75","","","","","","lextale","false","false","","","","","","","",""
"798","
  <p style=""font-size: 40px;"">propose</p>
  <p style=""font-size: 16px;"">F = YES &nbsp;&nbsp;&nbsp; J = NO</p>
","f","html-keyboard-response","18","2.1.0","40976","F=YES, J=NO","y9umytakqf","2","79","83","75","","","","","","lextale","true","false","","","","","","","",""
"2253","
  <p style=""font-size: 40px;"">forlay</p>
  <p style=""font-size: 16px;"">F = YES &nbsp;&nbsp;&nbsp; J = NO</p>
","j","html-keyboard-response","19","2.1.0","43230","F=YES, J=NO","y9umytakqf","2","79","83","75","","","","","","lextale","false","false","","","","","","","",""
"816","
  <p style=""font-size: 40px;"">tenant</p>
  <p style=""font-size: 16px;"">F = YES &nbsp;&nbsp;&nbsp; J = NO</p>
","f","html-keyboard-response","20","2.1.0","44047","F=YES, J=NO","y9umytakqf","2","79","83","75","","","","","","lextale","true","false","","","","","","","",""
"735","
  <p style=""font-size: 40px;"">strain</p>
  <p style=""font-size: 16px;"">F = YES &nbsp;&nbsp;&nbsp; J = NO</p>
","f","html-keyboard-response","21","2.1.0","44783","F=YES, J=NO","y9umytakqf","2","79","83","75","","","","","","lextale","true","false","","","","","","","",""
"834","
  <p style=""font-size: 40px;"">holster</p>
  <p style=""font-size: 16px;"">F = YES &nbsp;&nbsp;&nbsp; J = NO</p>
","f","html-keyboard-response","22","2.1.0","45618","F=YES, J=NO","y9umytakqf","2","79","83","75","","","","","","lextale","true","false","","","","","","","",""
"837","
  <p style=""font-size: 40px;"">hinder</p>
  <p style=""font-size: 16px;"">F = YES &nbsp;&nbsp;&nbsp; J = NO</p>
","f","html-keyboard-response","23","2.1.0","46457","F=YES, J=NO","y9umytakqf","2","79","83","75","","","","","","lextale","true","false","","","","","","","",""
"918","
  <p style=""font-size: 40px;"">swindle</p>
  <p style=""font-size: 16px;"">F = YES &nbsp;&nbsp;&nbsp; J = NO</p>
","f","html-keyboard-response","24","2.1.0","47375","F=YES, J=NO","y9umytakqf","2","79","83","75","","","","","","lextale","true","false","","","","","","","",""
"1668","
  <p style=""font-size: 40px;"">nuder</p>
  <p style=""font-size: 16px;"">F = YES &nbsp;&nbsp;&nbsp; J = NO</p>
","j","html-keyboard-response","25","2.1.0","49045","F=YES, J=NO","y9umytakqf","2","79","83","75","","","","","","lextale","false","false","","","","","","","",""
"689","
  <p style=""font-size: 40px;"">pillow</p>
  <p style=""font-size: 16px;"">F = YES &nbsp;&nbsp;&nbsp; J = NO</p>
","f","html-keyboard-response","26","2.1.0","49735","F=YES, J=NO","y9umytakqf","2","79","83","75","","","","","","lextale","true","false","","","","","","","",""
"867","
  <p style=""font-size: 40px;"">shumble</p>
  <p style=""font-size: 16px;"">F = YES &nbsp;&nbsp;&nbsp; J = NO</p>
","f","html-keyboard-response","27","2.1.0","50603","F=YES, J=NO","y9umytakqf","2","79","83","75","","","","","","lextale","false","false","","","","","","","",""
"685","
  <p style=""font-size: 40px;"">thirst</p>
  <p style=""font-size: 16px;"">F = YES &nbsp;&nbsp;&nbsp; J = NO</p>
","f","html-keyboard-response","28","2.1.0","51288","F=YES, J=NO","y9umytakqf","2","79","83","75","","","","","","lextale","true","false","","","","","","","",""
"1620","
  <p style=""font-size: 40px;"">unsail</p>
  <p style=""font-size: 16px;"">F = YES &nbsp;&nbsp;&nbsp; J = NO</p>
","j","html-keyboard-response","29","2.1.0","52910","F=YES, J=NO","y9umytakqf","2","79","83","75","","","","","","lextale","false","false","","","","","","","",""
"770","
  <p style=""font-size: 40px;"">rifle</p>
  <p style=""font-size: 16px;"">F = YES &nbsp;&nbsp;&nbsp; J = NO</p>
","f","html-keyboard-response","30","2.1.0","53681","F=YES, J=NO","y9umytakqf","2","79","83","75","","","","","","lextale","true","false","","","","","","","",""
"931","
  <p style=""font-size: 40px;"">mush</p>
  <p style=""font-size: 16px;"">F = YES &nbsp;&nbsp;&nbsp; J = NO</p>
","f","html-keyboard-response","31","2.1.0","54614","F=YES, J=NO","y9umytakqf","2","79","83","75","","","","","","lextale","false","false","","","","","","","",""
"734","
  <p style=""font-size: 40px;"">drench</p>
  <p style=""font-size: 16px;"">F = YES &nbsp;&nbsp;&nbsp; J = NO</p>
","f","html-keyboard-response","32","2.1.0","55349","F=YES, J=NO","y9umytakqf","2","79","83","75","","","","","","lextale","true","false","","","","","","","",""
"1131","
  <p style=""font-size: 40px;"">snirt</p>
  <p style=""font-size: 16px;"">F = YES &nbsp;&nbsp;&nbsp; J = NO</p>
","j","html-keyboard-response","33","2.1.0","56481","F=YES, J=NO","y9umytakqf","2","79","83","75","","","","","","lextale","false","false","","","","","","","",""
"623","
  <p style=""font-size: 40px;"">bitter</p>
  <p style=""font-size: 16px;"">F = YES &nbsp;&nbsp;&nbsp; J = NO</p>
","f","html-keyboard-response","34","2.1.0","57106","F=YES, J=NO","y9umytakqf","2","79","83","75","","","","","","lextale","true","false","","","","","","","",""
"1150","
  <p style=""font-size: 40px;"">pliff</p>
  <p style=""font-size: 16px;"">F = YES &nbsp;&nbsp;&nbsp; J = NO</p>
","j","html-keyboard-response","35","2.1.0","58257","F=YES, J=NO","y9umytakqf","2","79","83","75","","","","","","lextale","false","false","","","","","","","",""
"1031","
  <p style=""font-size: 40px;"">tablet</p>
  <p style=""font-size: 16px;"">F = YES &nbsp;&nbsp;&nbsp; J = NO</p>
","f","html-keyboard-response","36","2.1.0","59290","F=YES, J=NO","y9umytakqf","2","79","83","75","","","","","","lextale","true","false","","","","","","","",""
"956","
  <p style=""font-size: 40px;"">glimmer</p>
  <p style=""font-size: 16px;"">F = YES &nbsp;&nbsp;&nbsp; J = NO</p>
","f","html-keyboard-response","37","2.1.0","60246","F=YES, J=NO","y9umytakqf","2","79","83","75","","","","","","lextale","true","false","","","","","","","",""
"1813","
  <p style=""font-size: 40px;"">slink</p>
  <p style=""font-size: 16px;"">F = YES &nbsp;&nbsp;&nbsp; J = NO</p>
","f","html-keyboard-response","38","2.1.0","62060","F=YES, J=NO","y9umytakqf","2","79","83","75","","","","","","lextale","true","false","","","","","","","",""
"988","
  <p style=""font-size: 40px;"">clever</p>
  <p style=""font-size: 16px;"">F = YES &nbsp;&nbsp;&nbsp; J = NO</p>
","f","html-keyboard-response","39","2.1.0","63050","F=YES, J=NO","y9umytakqf","2","79","83","75","","","","","","lextale","true","false","","","","","","","",""
"863","
  <p style=""font-size: 40px;"">grum</p>
  <p style=""font-size: 16px;"">F = YES &nbsp;&nbsp;&nbsp; J = NO</p>
","j","html-keyboard-response","40","2.1.0","63914","F=YES, J=NO","y9umytakqf","2","79","83","75","","","","","","lextale","false","false","","","","","","","",""
"688","
  <p style=""font-size: 40px;"">string</p>
  <p style=""font-size: 16px;"">F = YES &nbsp;&nbsp;&nbsp; J = NO</p>
","f","html-keyboard-response","41","2.1.0","64603","F=YES, J=NO","y9umytakqf","2","79","83","75","","","","","","lextale","true","false","","","","","","","",""
"1038","
  <p style=""font-size: 40px;"">plim</p>
  <p style=""font-size: 16px;"">F = YES &nbsp;&nbsp;&nbsp; J = NO</p>
","j","html-keyboard-response","42","2.1.0","65642","F=YES, J=NO","y9umytakqf","2","79","83","75","","","","","","lextale","false","false","","","","","","","",""
"696","
  <p style=""font-size: 40px;"">cable</p>
  <p style=""font-size: 16px;"">F = YES &nbsp;&nbsp;&nbsp; J = NO</p>
","f","html-keyboard-response","43","2.1.0","66339","F=YES, J=NO","y9umytakqf","2","79","83","75","","","","","","lextale","true","false","","","","","","","",""
"1022","
  <p style=""font-size: 40px;"">shrivel</p>
  <p style=""font-size: 16px;"">F = YES &nbsp;&nbsp;&nbsp; J = NO</p>
","f","html-keyboard-response","44","2.1.0","67361","F=YES, J=NO","y9umytakqf","2","79","83","75","","","","","","lextale","true","false","","","","","","","",""
"1158","
  <p style=""font-size: 40px;"">tarnish</p>
  <p style=""font-size: 16px;"">F = YES &nbsp;&nbsp;&nbsp; J = NO</p>
","f","html-keyboard-response","45","2.1.0","68520","F=YES, J=NO","y9umytakqf","2","79","83","75","","","","","","lextale","true","false","","","","","","","",""
"2184","
  <p style=""font-size: 40px;"">blim</p>
  <p style=""font-size: 16px;"">F = YES &nbsp;&nbsp;&nbsp; J = NO</p>
","j","html-keyboard-response","46","2.1.0","70706","F=YES, J=NO","y9umytakqf","2","79","83","75","","","","","","lextale","false","false","","","","","","","",""
"827","
  <p style=""font-size: 40px;"">stifle</p>
  <p style=""font-size: 16px;"">F = YES &nbsp;&nbsp;&nbsp; J = NO</p>
","j","html-keyboard-response","47","2.1.0","71534","F=YES, J=NO","y9umytakqf","2","79","83","75","","","","","","lextale","true","false","","","","","","","",""
"1139","
  <p style=""font-size: 40px;"">bint</p>
  <p style=""font-size: 16px;"">F = YES &nbsp;&nbsp;&nbsp; J = NO</p>
","j","html-keyboard-response","48","2.1.0","72675","F=YES, J=NO","y9umytakqf","2","79","83","75","","","","","","lextale","false","false","","","","","","","",""
"580","
  <p style=""font-size: 40px;"">purple</p>
  <p style=""font-size: 16px;"">F = YES &nbsp;&nbsp;&nbsp; J = NO</p>
","f","html-keyboard-response","49","2.1.0","73256","F=YES, J=NO","y9umytakqf","2","79","83","75","","","","","","lextale","true","false","","","","","","","",""
"733","
  <p style=""font-size: 40px;"">wriggle</p>
  <p style=""font-size: 16px;"">F = YES &nbsp;&nbsp;&nbsp; J = NO</p>
","f","html-keyboard-response","50","2.1.0","73991","F=YES, J=NO","y9umytakqf","2","79","83","75","","","","","","lextale","true","false","","","","","","","",""
"710","
  <p style=""font-size: 40px;"">mangle</p>
  <p style=""font-size: 16px;"">F = YES &nbsp;&nbsp;&nbsp; J = NO</p>
","f","html-keyboard-response","51","2.1.0","74703","F=YES, J=NO","y9umytakqf","2","79","83","75","","","","","","lextale","true","false","","","","","","","",""
"1729","
  <p style=""font-size: 40px;"">shramp</p>
  <p style=""font-size: 16px;"">F = YES &nbsp;&nbsp;&nbsp; J = NO</p>
","f","html-keyboard-response","52","2.1.0","76433","F=YES, J=NO","y9umytakqf","2","79","83","75","","","","","","lextale","false","false","","","","","","","",""
"585","
  <p style=""font-size: 40px;"">flirt</p>
  <p style=""font-size: 16px;"">F = YES &nbsp;&nbsp;&nbsp; J = NO</p>
","f","html-keyboard-response","53","2.1.0","77019","F=YES, J=NO","y9umytakqf","2","79","83","75","","","","","","lextale","true","false","","","","","","","",""
"850","
  <p style=""font-size: 40px;"">frip</p>
  <p style=""font-size: 16px;"">F = YES &nbsp;&nbsp;&nbsp; J = NO</p>
","j","html-keyboard-response","54","2.1.0","77870","F=YES, J=NO","y9umytakqf","2","79","83","75","","","","","","lextale","false","false","","","","","","","",""
"686","
  <p style=""font-size: 40px;"">tangle</p>
  <p style=""font-size: 16px;"">F = YES &nbsp;&nbsp;&nbsp; J = NO</p>
","f","html-keyboard-response","55","2.1.0","78557","F=YES, J=NO","y9umytakqf","2","79","83","75","","","","","","lextale","true","false","","","","","","","",""
"1590","
  <p style=""font-size: 40px;"">crumble</p>
  <p style=""font-size: 16px;"">F = YES &nbsp;&nbsp;&nbsp; J = NO</p>
","f","html-keyboard-response","56","2.1.0","80148","F=YES, J=NO","y9umytakqf","2","79","83","75","","","","","","lextale","true","false","","","","","","","",""
"830","
  <p style=""font-size: 40px;"">wrinkle</p>
  <p style=""font-size: 16px;"">F = YES &nbsp;&nbsp;&nbsp; J = NO</p>
","f","html-keyboard-response","57","2.1.0","80978","F=YES, J=NO","y9umytakqf","2","79","83","75","","","","","","lextale","true","false","","","","","","","",""
"1429","
  <p style=""font-size: 40px;"">slumb</p>
  <p style=""font-size: 16px;"">F = YES &nbsp;&nbsp;&nbsp; J = NO</p>
","j","html-keyboard-response","58","2.1.0","82409","F=YES, J=NO","y9umytakqf","2","79","83","75","","","","","","lextale","false","false","","","","","","","",""
"641","
  <p style=""font-size: 40px;"">jungle</p>
  <p style=""font-size: 16px;"">F = YES &nbsp;&nbsp;&nbsp; J = NO</p>
","f","html-keyboard-response","59","2.1.0","83051","F=YES, J=NO","y9umytakqf","2","79","83","75","","","","","","lextale","true","false","","","","","","","",""
"1151","
  <p style=""font-size: 40px;"">frolick</p>
  <p style=""font-size: 16px;"">F = YES &nbsp;&nbsp;&nbsp; J = NO</p>
","j","html-keyboard-response","60","2.1.0","84203","F=YES, J=NO","y9umytakqf","2","79","83","75","","","","","","lextale","false","false","","","","","","","",""
"2227","
      <h2>LexTALE Test Completed</h2>
      <p>Your LexTALE vocabulary score is: <strong>79%</strong></p>
      <p>Press any key to continue.</p>
    ","F11","html-keyboard-response","61","2.1.0","86432","F=YES, J=NO","y9umytakqf","2","79","83","75","","","","","","","","","","","","","","","",""
"53131","
    <div style=""max-width: 800px; margin: auto; text-align: left;"">
      <h2>Break Time</h2>
      <p>You have completed the first part of the study.</p>
      <p>You may take a short <strong>30-second break</strong> before continuing.</p>
      <p>When you’re ready, press any key to continue to the final task.</p>
    </div>
  ","F11","html-keyboard-response","62","2.1.0","139563","F=YES, J=NO","y9umytakqf","2","79","83","75","","","","","","","","","","","","","","","",""
"22658","
    <div style=""max-width: 800px; margin: auto; text-align: left;"">
      <h2>Part 2: Lexical Decision Task</h2>
      <p>You will now begin the second part of the study.</p>
      <p>Each trial will follow this sequence:</p>
      <ul>
        <li>A fixation cross (+) appears at the center of the screen.</li>
        <li>You will hear a short beep followed by a spoken word.</li>
        <li>A written word will appear briefly on the screen.</li>
      </ul>
      <p>Your task is to judge whether the <strong>written word</strong> is a real English word.</p>
      <p style=""margin-top: 1em;""><strong>Key responses:</strong></p>
      <ul>
        <li><strong>F</strong> = YES (real English word)</li>
        <li><strong>J</strong> = NO (not a real English word)</li>
      </ul>
      <p>Please respond as quickly and accurately as you can.</p>
      <p style=""margin-top: 2em;"">Press any key to continue.</p>
    </div>
  "," ","html-keyboard-response","63","2.1.0","162222","F=YES, J=NO","y9umytakqf","2","79","83","75","","","","","","","","","","","","","","","",""
"5333","
    <div style=""max-width: 800px; margin: auto; text-align: left;"">
      <h2>Before You Begin</h2>
      <p>Make sure your sound is turned on.</p>
      <p>You will hear audio during each trial, but your decision should be based only on the <strong>written word</strong> you see on the screen.</p>
      <p><strong>Reminder:</strong></p>
      <ul>
        <li><strong>F</strong> = YES (real English word)</li>
        <li><strong>J</strong> = NO (not a real English word)</li>
      </ul>
      <p style=""margin-top: 2em;"">Press any key when you are ready to begin.</p>
    </div>
  "," ","html-keyboard-response","64","2.1.0","167556","F=YES, J=NO","y9umytakqf","2","79","83","75","","","","","","","","","","","","","","","",""
"1828","
    <div style=""max-width: 800px; margin: auto; text-align: left;"">
      <h2>Part 2: Practice Trials</h2>
      <p>You will now complete a few <strong>practice trials</strong> to get familiar with the task.</p>
      <p>These trials are <strong>not scored</strong> and are only to help you get used to the format.</p>
      <p style=""margin-top: 2em;"">Press any key to begin.</p>
    </div>
  "," ","html-keyboard-response","65","2.1.0","169385","F=YES, J=NO","y9umytakqf","2","79","83","75","","","","","","","","","","","","","","","",""
"3017","<p>Starting practice block 1 of 2. Press any key to continue.</p>"," ","html-keyboard-response","66","2.1.0","172403","F=YES, J=NO","y9umytakqf","2","79","83","75","","","","","","","","","","","","","","","",""
"null","<p style=""font-size: 50px;"">+</p>","null","html-keyboard-response","67","2.1.0","172708","F=YES, J=NO","y9umytakqf","2","79","83","75","","","","","","","","","","","","","","","",""
"null","audio/beep-329314.mp3","null","audio-keyboard-response","68","2.1.0","174456","F=YES, J=NO","y9umytakqf","2","79","83","75","","","","","","","","","","","","","","","",""
"null","audio/cave1.wav","null","audio-keyboard-response","69","2.1.0","176317","F=YES, J=NO","y9umytakqf","2","79","83","75","","","","","","","","","","","","","","","",""
"null","
          <p id=""word"" style=""font-size: 40px;"">blacket</p>
          <p style=""font-size: 16px;"">F = YES &nbsp;&nbsp;&nbsp; J = NO</p>
        ","null","html-keyboard-response","70","2.1.0","177835","F=YES, J=NO","y9umytakqf","2","79","83","75","","","","","","","","","blacket","cave1","pseudoword","pseudoword","j","false","",""
"null","<p style=""font-size: 50px;"">+</p>","null","html-keyboard-response","71","2.1.0","178140","F=YES, J=NO","y9umytakqf","2","79","83","75","","","","","","","","","","","","","","","",""
"null","audio/beep-329314.mp3","null","audio-keyboard-response","72","2.1.0","179676","F=YES, J=NO","y9umytakqf","2","79","83","75","","","","","","","","","","","","","","","",""
"null","audio/client1.wav","null","audio-keyboard-response","73","2.1.0","181296","F=YES, J=NO","y9umytakqf","2","79","83","75","","","","","","","","","","","","","","","",""
"791","
          <p id=""word"" style=""font-size: 40px;"">droothe</p>
          <p style=""font-size: 16px;"">F = YES &nbsp;&nbsp;&nbsp; J = NO</p>
        ","j","html-keyboard-response","74","2.1.0","182088","F=YES, J=NO","y9umytakqf","2","79","83","75","","","","","","","","","droothe","client1","pseudoword","pseudoword","j","true","",""
"null","<p style=""font-size: 50px;"">+</p>","null","html-keyboard-response","75","2.1.0","182399","F=YES, J=NO","y9umytakqf","2","79","83","75","","","","","","","","","","","","","","","",""
"null","audio/beep-329314.mp3","null","audio-keyboard-response","76","2.1.0","183936","F=YES, J=NO","y9umytakqf","2","79","83","75","","","","","","","","","","","","","","","",""
"null","audio/brain.wav","null","audio-keyboard-response","77","2.1.0","184695","F=YES, J=NO","y9umytakqf","2","79","83","75","","","","","","","","","","","","","","","",""
"711","
          <p id=""word"" style=""font-size: 40px;"">throw</p>
          <p style=""font-size: 16px;"">F = YES &nbsp;&nbsp;&nbsp; J = NO</p>
        ","f","html-keyboard-response","78","2.1.0","185407","F=YES, J=NO","y9umytakqf","2","79","83","75","","","","","","","","","throw","brain","filler","filler","f","true","",""
"null","<p style=""font-size: 50px;"">+</p>","null","html-keyboard-response","79","2.1.0","185718","F=YES, J=NO","y9umytakqf","2","79","83","75","","","","","","","","","","","","","","","",""
"null","audio/beep-329314.mp3","null","audio-keyboard-response","80","2.1.0","187255","F=YES, J=NO","y9umytakqf","2","79","83","75","","","","","","","","","","","","","","","",""
"null","audio/belief.wav","null","audio-keyboard-response","81","2.1.0","187976","F=YES, J=NO","y9umytakqf","2","79","83","75","","","","","","","","","","","","","","","",""
"556","
          <p id=""word"" style=""font-size: 40px;"">read</p>
          <p style=""font-size: 16px;"">F = YES &nbsp;&nbsp;&nbsp; J = NO</p>
        ","f","html-keyboard-response","82","2.1.0","188533","F=YES, J=NO","y9umytakqf","2","79","83","75","","","","","","","","","read","belief","filler","filler","f","true","",""
"null","<p style=""font-size: 50px;"">+</p>","null","html-keyboard-response","83","2.1.0","188838","F=YES, J=NO","y9umytakqf","2","79","83","75","","","","","","","","","","","","","","","",""
"null","audio/beep-329314.mp3","null","audio-keyboard-response","84","2.1.0","190376","F=YES, J=NO","y9umytakqf","2","79","83","75","","","","","","","","","","","","","","","",""
"null","audio/foe1.wav","null","audio-keyboard-response","85","2.1.0","190955","F=YES, J=NO","y9umytakqf","2","79","83","75","","","","","","","","","","","","","","","",""
"655","
          <p id=""word"" style=""font-size: 40px;"">creth</p>
          <p style=""font-size: 16px;"">F = YES &nbsp;&nbsp;&nbsp; J = NO</p>
        ","j","html-keyboard-response","86","2.1.0","191612","F=YES, J=NO","y9umytakqf","2","79","83","75","","","","","","","","","creth","foe1","pseudoword","pseudoword","j","true","",""
"null","<p style=""font-size: 50px;"">+</p>","null","html-keyboard-response","87","2.1.0","191917","F=YES, J=NO","y9umytakqf","2","79","83","75","","","","","","","","","","","","","","","",""
"null","audio/beep-329314.mp3","null","audio-keyboard-response","88","2.1.0","193456","F=YES, J=NO","y9umytakqf","2","79","83","75","","","","","","","","","","","","","","","",""
"null","audio/baby.wav","null","audio-keyboard-response","89","2.1.0","194095","F=YES, J=NO","y9umytakqf","2","79","83","75","","","","","","","","","","","","","","","",""
"658","
          <p id=""word"" style=""font-size: 40px;"">lift</p>
          <p style=""font-size: 16px;"">F = YES &nbsp;&nbsp;&nbsp; J = NO</p>
        ","f","html-keyboard-response","90","2.1.0","194755","F=YES, J=NO","y9umytakqf","2","79","83","75","","","","","","","","","lift","baby","filler","filler","f","true","",""
"null","<p style=""font-size: 50px;"">+</p>","null","html-keyboard-response","91","2.1.0","195059","F=YES, J=NO","y9umytakqf","2","79","83","75","","","","","","","","","","","","","","","",""
"null","audio/beep-329314.mp3","null","audio-keyboard-response","92","2.1.0","196595","F=YES, J=NO","y9umytakqf","2","79","83","75","","","","","","","","","","","","","","","",""
"null","audio/foot1.wav","null","audio-keyboard-response","93","2.1.0","197217","F=YES, J=NO","y9umytakqf","2","79","83","75","","","","","","","","","","","","","","","",""
"758","
          <p id=""word"" style=""font-size: 40px;"">thrutt</p>
          <p style=""font-size: 16px;"">F = YES &nbsp;&nbsp;&nbsp; J = NO</p>
        ","j","html-keyboard-response","94","2.1.0","197977","F=YES, J=NO","y9umytakqf","2","79","83","75","","","","","","","","","thrutt","foot1","pseudoword","pseudoword","j","true","",""
"null","<p style=""font-size: 50px;"">+</p>","null","html-keyboard-response","95","2.1.0","198284","F=YES, J=NO","y9umytakqf","2","79","83","75","","","","","","","","","","","","","","","",""
"null","audio/beep-329314.mp3","null","audio-keyboard-response","96","2.1.0","199816","F=YES, J=NO","y9umytakqf","2","79","83","75","","","","","","","","","","","","","","","",""
"null","audio/novel.wav","null","audio-keyboard-response","97","2.1.0","200316","F=YES, J=NO","y9umytakqf","2","79","83","75","","","","","","","","","","","","","","","",""
"740","
          <p id=""word"" style=""font-size: 40px;"">type</p>
          <p style=""font-size: 16px;"">F = YES &nbsp;&nbsp;&nbsp; J = NO</p>
        ","f","html-keyboard-response","98","2.1.0","201057","F=YES, J=NO","y9umytakqf","2","79","83","75","","","","","","","","","type","novel","filler","filler","f","true","",""
"null","<p style=""font-size: 50px;"">+</p>","null","html-keyboard-response","99","2.1.0","201358","F=YES, J=NO","y9umytakqf","2","79","83","75","","","","","","","","","","","","","","","",""
"null","audio/beep-329314.mp3","null","audio-keyboard-response","100","2.1.0","202895","F=YES, J=NO","y9umytakqf","2","79","83","75","","","","","","","","","","","","","","","",""
"null","audio/show.wav","null","audio-keyboard-response","101","2.1.0","204275","F=YES, J=NO","y9umytakqf","2","79","83","75","","","","","","","","","","","","","","","",""
"783","
          <p id=""word"" style=""font-size: 40px;"">smark</p>
          <p style=""font-size: 16px;"">F = YES &nbsp;&nbsp;&nbsp; J = NO</p>
        ","j","html-keyboard-response","102","2.1.0","205060","F=YES, J=NO","y9umytakqf","2","79","83","75","","","","","","","","","smark","show","pseudoword","pseudoword","j","true","",""
"null","<p style=""font-size: 50px;"">+</p>","null","html-keyboard-response","103","2.1.0","205367","F=YES, J=NO","y9umytakqf","2","79","83","75","","","","","","","","","","","","","","","",""
"null","audio/beep-329314.mp3","null","audio-keyboard-response","104","2.1.0","206895","F=YES, J=NO","y9umytakqf","2","79","83","75","","","","","","","","","","","","","","","",""
"null","audio/tax1.wav","null","audio-keyboard-response","105","2.1.0","207514","F=YES, J=NO","y9umytakqf","2","79","83","75","","","","","","","","","","","","","","","",""
"729","
          <p id=""word"" style=""font-size: 40px;"">snate</p>
          <p style=""font-size: 16px;"">F = YES &nbsp;&nbsp;&nbsp; J = NO</p>
        ","j","html-keyboard-response","106","2.1.0","208245","F=YES, J=NO","y9umytakqf","2","79","83","75","","","","","","","","","snate","tax1","pseudoword","pseudoword","j","true","",""
"null","<p style=""font-size: 50px;"">+</p>","null","html-keyboard-response","107","2.1.0","208559","F=YES, J=NO","y9umytakqf","2","79","83","75","","","","","","","","","","","","","","","",""
"null","audio/beep-329314.mp3","null","audio-keyboard-response","108","2.1.0","210096","F=YES, J=NO","y9umytakqf","2","79","83","75","","","","","","","","","","","","","","","",""
"null","audio/age1.wav","null","audio-keyboard-response","109","2.1.0","210656","F=YES, J=NO","y9umytakqf","2","79","83","75","","","","","","","","","","","","","","","",""
"622","
          <p id=""word"" style=""font-size: 40px;"">bake</p>
          <p style=""font-size: 16px;"">F = YES &nbsp;&nbsp;&nbsp; J = NO</p>
        ","f","html-keyboard-response","110","2.1.0","211278","F=YES, J=NO","y9umytakqf","2","79","83","75","","","","","","","","","bake","age1","filler","filler","f","true","",""
"null","<p style=""font-size: 50px;"">+</p>","null","html-keyboard-response","111","2.1.0","211583","F=YES, J=NO","y9umytakqf","2","79","83","75","","","","","","","","","","","","","","","",""
"null","audio/beep-329314.mp3","null","audio-keyboard-response","112","2.1.0","213116","F=YES, J=NO","y9umytakqf","2","79","83","75","","","","","","","","","","","","","","","",""
"null","audio/mile1.wav","null","audio-keyboard-response","113","2.1.0","214894","F=YES, J=NO","y9umytakqf","2","79","83","75","","","","","","","","","","","","","","","",""
"1052","
          <p id=""word"" style=""font-size: 40px;"">writch</p>
          <p style=""font-size: 16px;"">F = YES &nbsp;&nbsp;&nbsp; J = NO</p>
        ","j","html-keyboard-response","114","2.1.0","215947","F=YES, J=NO","y9umytakqf","2","79","83","75","","","","","","","","","writch","mile1","pseudoword","pseudoword","j","true","",""
"1316","<p>Starting practice block 2 of 2. Press any key to continue.</p>"," ","html-keyboard-response","115","2.1.0","217264","F=YES, J=NO","y9umytakqf","2","79","83","75","","","","","","","","","","","","","","","",""
"null","<p style=""font-size: 50px;"">+</p>","null","html-keyboard-response","116","2.1.0","217573","F=YES, J=NO","y9umytakqf","2","79","83","75","","","","","","","","","","","","","","","",""
"null","audio/beep-329314.mp3","null","audio-keyboard-response","117","2.1.0","219116","F=YES, J=NO","y9umytakqf","2","79","83","75","","","","","","","","","","","","","","","",""
"null","audio/beach1.wav","null","audio-keyboard-response","118","2.1.0","219716","F=YES, J=NO","y9umytakqf","2","79","83","75","","","","","","","","","","","","","","","",""
"613","
          <p id=""word"" style=""font-size: 40px;"">drive</p>
          <p style=""font-size: 16px;"">F = YES &nbsp;&nbsp;&nbsp; J = NO</p>
        ","f","html-keyboard-response","119","2.1.0","220331","F=YES, J=NO","y9umytakqf","2","79","83","75","","","","","","","","","drive","beach1","filler","filler","f","true","",""
"null","<p style=""font-size: 50px;"">+</p>","null","html-keyboard-response","120","2.1.0","220640","F=YES, J=NO","y9umytakqf","2","79","83","75","","","","","","","","","","","","","","","",""
"null","audio/beep-329314.mp3","null","audio-keyboard-response","121","2.1.0","222175","F=YES, J=NO","y9umytakqf","2","79","83","75","","","","","","","","","","","","","","","",""
"null","audio/arm.wav","null","audio-keyboard-response","122","2.1.0","222735","F=YES, J=NO","y9umytakqf","2","79","83","75","","","","","","","","","","","","","","","",""
"630","
          <p id=""word"" style=""font-size: 40px;"">fold</p>
          <p style=""font-size: 16px;"">F = YES &nbsp;&nbsp;&nbsp; J = NO</p>
        ","f","html-keyboard-response","123","2.1.0","223367","F=YES, J=NO","y9umytakqf","2","79","83","75","","","","","","","","","fold","arm","filler","filler","f","true","",""
"null","<p style=""font-size: 50px;"">+</p>","null","html-keyboard-response","124","2.1.0","223674","F=YES, J=NO","y9umytakqf","2","79","83","75","","","","","","","","","","","","","","","",""
"null","audio/beep-329314.mp3","null","audio-keyboard-response","125","2.1.0","225216","F=YES, J=NO","y9umytakqf","2","79","83","75","","","","","","","","","","","","","","","",""
"null","audio/ankle1.wav","null","audio-keyboard-response","126","2.1.0","225755","F=YES, J=NO","y9umytakqf","2","79","83","75","","","","","","","","","","","","","","","",""
"739","
          <p id=""word"" style=""font-size: 40px;"">switm</p>
          <p style=""font-size: 16px;"">F = YES &nbsp;&nbsp;&nbsp; J = NO</p>
        ","j","html-keyboard-response","127","2.1.0","226495","F=YES, J=NO","y9umytakqf","2","79","83","75","","","","","","","","","switm","ankle1","pseudoword","pseudoword","j","true","",""
"null","<p style=""font-size: 50px;"">+</p>","null","html-keyboard-response","128","2.1.0","226808","F=YES, J=NO","y9umytakqf","2","79","83","75","","","","","","","","","","","","","","","",""
"null","audio/beep-329314.mp3","null","audio-keyboard-response","129","2.1.0","228335","F=YES, J=NO","y9umytakqf","2","79","83","75","","","","","","","","","","","","","","","",""
"null","audio/winter.wav","null","audio-keyboard-response","130","2.1.0","228935","F=YES, J=NO","y9umytakqf","2","79","83","75","","","","","","","","","","","","","","","",""
"974","
          <p id=""word"" style=""font-size: 40px;"">straven</p>
          <p style=""font-size: 16px;"">F = YES &nbsp;&nbsp;&nbsp; J = NO</p>
        ","j","html-keyboard-response","131","2.1.0","229910","F=YES, J=NO","y9umytakqf","2","79","83","75","","","","","","","","","straven","winter","pseudoword","pseudoword","j","true","",""
"null","<p style=""font-size: 50px;"">+</p>","null","html-keyboard-response","132","2.1.0","230218","F=YES, J=NO","y9umytakqf","2","79","83","75","","","","","","","","","","","","","","","",""
"null","audio/beep-329314.mp3","null","audio-keyboard-response","133","2.1.0","231757","F=YES, J=NO","y9umytakqf","2","79","83","75","","","","","","","","","","","","","","","",""
"null","audio/terrain.wav","null","audio-keyboard-response","134","2.1.0","232616","F=YES, J=NO","y9umytakqf","2","79","83","75","","","","","","","","","","","","","","","",""
"697","
          <p id=""word"" style=""font-size: 40px;"">twist</p>
          <p style=""font-size: 16px;"">F = YES &nbsp;&nbsp;&nbsp; J = NO</p>
        ","f","html-keyboard-response","135","2.1.0","233314","F=YES, J=NO","y9umytakqf","2","79","83","75","","","","","","","","","twist","terrain","filler","filler","f","true","",""
"null","<p style=""font-size: 50px;"">+</p>","null","html-keyboard-response","136","2.1.0","233630","F=YES, J=NO","y9umytakqf","2","79","83","75","","","","","","","","","","","","","","","",""
"null","audio/beep-329314.mp3","null","audio-keyboard-response","137","2.1.0","235155","F=YES, J=NO","y9umytakqf","2","79","83","75","","","","","","","","","","","","","","","",""
"null","audio/heart1.wav","null","audio-keyboard-response","138","2.1.0","235795","F=YES, J=NO","y9umytakqf","2","79","83","75","","","","","","","","","","","","","","","",""
"912","
          <p id=""word"" style=""font-size: 40px;"">dralm</p>
          <p style=""font-size: 16px;"">F = YES &nbsp;&nbsp;&nbsp; J = NO</p>
        ","j","html-keyboard-response","139","2.1.0","236709","F=YES, J=NO","y9umytakqf","2","79","83","75","","","","","","","","","dralm","heart1","pseudoword","pseudoword","j","true","",""
"null","<p style=""font-size: 50px;"">+</p>","null","html-keyboard-response","140","2.1.0","237017","F=YES, J=NO","y9umytakqf","2","79","83","75","","","","","","","","","","","","","","","",""
"null","audio/beep-329314.mp3","null","audio-keyboard-response","141","2.1.0","238556","F=YES, J=NO","y9umytakqf","2","79","83","75","","","","","","","","","","","","","","","",""
"null","audio/strength.wav","null","audio-keyboard-response","142","2.1.0","239296","F=YES, J=NO","y9umytakqf","2","79","83","75","","","","","","","","","","","","","","","",""
"950","
          <p id=""word"" style=""font-size: 40px;"">plabet</p>
          <p style=""font-size: 16px;"">F = YES &nbsp;&nbsp;&nbsp; J = NO</p>
        ","j","html-keyboard-response","143","2.1.0","240247","F=YES, J=NO","y9umytakqf","2","79","83","75","","","","","","","","","plabet","strength","pseudoword","pseudoword","j","true","",""
"null","<p style=""font-size: 50px;"">+</p>","null","html-keyboard-response","144","2.1.0","240558","F=YES, J=NO","y9umytakqf","2","79","83","75","","","","","","","","","","","","","","","",""
"null","audio/beep-329314.mp3","null","audio-keyboard-response","145","2.1.0","242097","F=YES, J=NO","y9umytakqf","2","79","83","75","","","","","","","","","","","","","","","",""
"null","audio/menu.wav","null","audio-keyboard-response","146","2.1.0","242934","F=YES, J=NO","y9umytakqf","2","79","83","75","","","","","","","","","","","","","","","",""
"646","
          <p id=""word"" style=""font-size: 40px;"">slice</p>
          <p style=""font-size: 16px;"">F = YES &nbsp;&nbsp;&nbsp; J = NO</p>
        ","f","html-keyboard-response","147","2.1.0","243581","F=YES, J=NO","y9umytakqf","2","79","83","75","","","","","","","","","slice","menu","filler","filler","f","true","",""
"null","<p style=""font-size: 50px;"">+</p>","null","html-keyboard-response","148","2.1.0","243889","F=YES, J=NO","y9umytakqf","2","79","83","75","","","","","","","","","","","","","","","",""
"null","audio/beep-329314.mp3","null","audio-keyboard-response","149","2.1.0","245416","F=YES, J=NO","y9umytakqf","2","79","83","75","","","","","","","","","","","","","","","",""
"null","audio/kettle1.wav","null","audio-keyboard-response","150","2.1.0","245896","F=YES, J=NO","y9umytakqf","2","79","83","75","","","","","","","","","","","","","","","",""
"653","
          <p id=""word"" style=""font-size: 40px;"">wrap</p>
          <p style=""font-size: 16px;"">F = YES &nbsp;&nbsp;&nbsp; J = NO</p>
        ","f","html-keyboard-response","151","2.1.0","246551","F=YES, J=NO","y9umytakqf","2","79","83","75","","","","","","","","","wrap","kettle1","filler","filler","f","true","",""
"null","<p style=""font-size: 50px;"">+</p>","null","html-keyboard-response","152","2.1.0","246853","F=YES, J=NO","y9umytakqf","2","79","83","75","","","","","","","","","","","","","","","",""
"null","audio/beep-329314.mp3","null","audio-keyboard-response","153","2.1.0","248395","F=YES, J=NO","y9umytakqf","2","79","83","75","","","","","","","","","","","","","","","",""
"null","audio/haste1.wav","null","audio-keyboard-response","154","2.1.0","249075","F=YES, J=NO","y9umytakqf","2","79","83","75","","","","","","","","","","","","","","","",""
"1254","
          <p id=""word"" style=""font-size: 40px;"">coraconate</p>
          <p style=""font-size: 16px;"">F = YES &nbsp;&nbsp;&nbsp; J = NO</p>
        ","j","html-keyboard-response","155","2.1.0","250330","F=YES, J=NO","y9umytakqf","2","79","83","75","","","","","","","","","coraconate","haste1","pseudoword","pseudoword","j","true","",""
"null","<p style=""font-size: 50px;"">+</p>","null","html-keyboard-response","156","2.1.0","250639","F=YES, J=NO","y9umytakqf","2","79","83","75","","","","","","","","","","","","","","","",""
"null","audio/beep-329314.mp3","null","audio-keyboard-response","157","2.1.0","252175","F=YES, J=NO","y9umytakqf","2","79","83","75","","","","","","","","","","","","","","","",""
"null","audio/butter1.wav","null","audio-keyboard-response","158","2.1.0","252636","F=YES, J=NO","y9umytakqf","2","79","83","75","","","","","","","","","","","","","","","",""
"624","
          <p id=""word"" style=""font-size: 40px;"">chew</p>
          <p style=""font-size: 16px;"">F = YES &nbsp;&nbsp;&nbsp; J = NO</p>
        ","f","html-keyboard-response","159","2.1.0","253262","F=YES, J=NO","y9umytakqf","2","79","83","75","","","","","","","","","chew","butter1","filler","filler","f","true","",""
"null","<p style=""font-size: 50px;"">+</p>","null","html-keyboard-response","160","2.1.0","253572","F=YES, J=NO","y9umytakqf","2","79","83","75","","","","","","","","","","","","","","","",""
"null","audio/beep-329314.mp3","null","audio-keyboard-response","161","2.1.0","255096","F=YES, J=NO","y9umytakqf","2","79","83","75","","","","","","","","","","","","","","","",""
"null","audio/bottle.wav","null","audio-keyboard-response","162","2.1.0","255636","F=YES, J=NO","y9umytakqf","2","79","83","75","","","","","","","","","","","","","","","",""
"634","
          <p id=""word"" style=""font-size: 40px;"">watch</p>
          <p style=""font-size: 16px;"">F = YES &nbsp;&nbsp;&nbsp; J = NO</p>
        ","f","html-keyboard-response","163","2.1.0","256272","F=YES, J=NO","y9umytakqf","2","79","83","75","","","","","","","","","watch","bottle","filler","filler","f","true","",""
"8414","
    <div style=""max-width: 800px; margin: auto; text-align: left;"">
      <h2>Part 2: Main Trials</h2>
      <p>Great job on the practice trials!</p>
      <p>You will now begin the <strong>main set of trials</strong>.</p>
      <p>Remember your key assignments:</p>
      <ul>
        <li><strong>F</strong> = YES (real English word)</li>
        <li><strong>J</strong> = NO (not a real English word)</li>
      </ul>
      <p>Try to respond as <strong>quickly and accurately</strong> as possible.</p>
      <p style=""margin-top: 2em;"">Press any key to begin the main trials.</p>
    </div>
  "," ","html-keyboard-response","164","2.1.0","264687","F=YES, J=NO","y9umytakqf","2","79","83","75","","","","","","","","","","","","","","","",""
"1113","<p>Starting main block 1 of 8. Press any key to continue.</p>"," ","html-keyboard-response","165","2.1.0","265801","F=YES, J=NO","y9umytakqf","2","79","83","75","","","","","","","","","","","","","","","",""
"null","<p style=""font-size: 50px;"">+</p>","null","html-keyboard-response","166","2.1.0","266114","F=YES, J=NO","y9umytakqf","2","79","83","75","","","","","","","","","","","","","","","",""
"null","audio/beep-329314.mp3","null","audio-keyboard-response","167","2.1.0","267620","F=YES, J=NO","y9umytakqf","2","79","83","75","","","","","","","","","","","","","","","",""
"null","audio/noise1.wav","null","audio-keyboard-response","168","2.1.0","268221","F=YES, J=NO","y9umytakqf","2","79","83","75","","","","","","","","","","","","","","","",""
"968","
          <p id=""word"" style=""font-size: 40px;"">slintered</p>
          <p style=""font-size: 16px;"">F = YES &nbsp;&nbsp;&nbsp; J = NO</p>
        ","f","html-keyboard-response","169","2.1.0","269190","F=YES, J=NO","y9umytakqf","2","79","83","75","","","","","","","","","slintered","noise1","pseudoword","pseudoword","j","false","",""
"null","<p style=""font-size: 50px;"">+</p>","null","html-keyboard-response","170","2.1.0","269508","F=YES, J=NO","y9umytakqf","2","79","83","75","","","","","","","","","","","","","","","",""
"null","audio/beep-329314.mp3","null","audio-keyboard-response","171","2.1.0","271040","F=YES, J=NO","y9umytakqf","2","79","83","75","","","","","","","","","","","","","","","",""
"null","audio/cancer1.wav","null","audio-keyboard-response","172","2.1.0","271601","F=YES, J=NO","y9umytakqf","2","79","83","75","","","","","","","","","","","","","","","",""
"824","
          <p id=""word"" style=""font-size: 40px;"">fight</p>
          <p style=""font-size: 16px;"">F = YES &nbsp;&nbsp;&nbsp; J = NO</p>
        ","f","html-keyboard-response","173","2.1.0","272427","F=YES, J=NO","y9umytakqf","2","79","83","75","","","","","","","","","fight","cancer1","metaphor","experimental","f","true","",""
"null","<p style=""font-size: 50px;"">+</p>","null","html-keyboard-response","174","2.1.0","272738","F=YES, J=NO","y9umytakqf","2","79","83","75","","","","","","","","","","","","","","","",""
"null","audio/beep-329314.mp3","null","audio-keyboard-response","175","2.1.0","274281","F=YES, J=NO","y9umytakqf","2","79","83","75","","","","","","","","","","","","","","","",""
"null","audio/plot1.wav","null","audio-keyboard-response","176","2.1.0","274840","F=YES, J=NO","y9umytakqf","2","79","83","75","","","","","","","","","","","","","","","",""
"649","
          <p id=""word"" style=""font-size: 40px;"">weave</p>
          <p style=""font-size: 16px;"">F = YES &nbsp;&nbsp;&nbsp; J = NO</p>
        ","f","html-keyboard-response","177","2.1.0","275489","F=YES, J=NO","y9umytakqf","2","79","83","75","","","","","","","","","weave","plot1","metaphor","experimental","f","true","",""
"null","<p style=""font-size: 50px;"">+</p>","null","html-keyboard-response","178","2.1.0","275795","F=YES, J=NO","y9umytakqf","2","79","83","75","","","","","","","","","","","","","","","",""
"null","audio/beep-329314.mp3","null","audio-keyboard-response","179","2.1.0","277321","F=YES, J=NO","y9umytakqf","2","79","83","75","","","","","","","","","","","","","","","",""
"null","audio/flaw.wav","null","audio-keyboard-response","180","2.1.0","278000","F=YES, J=NO","y9umytakqf","2","79","83","75","","","","","","","","","","","","","","","",""
"583","
          <p id=""word"" style=""font-size: 40px;"">hide</p>
          <p style=""font-size: 16px;"">F = YES &nbsp;&nbsp;&nbsp; J = NO</p>
        ","f","html-keyboard-response","181","2.1.0","278584","F=YES, J=NO","y9umytakqf","2","79","83","75","","","","","","","","","hide","flaw","metaphor","experimental","f","true","",""
"null","<p style=""font-size: 50px;"">+</p>","null","html-keyboard-response","182","2.1.0","278886","F=YES, J=NO","y9umytakqf","2","79","83","75","","","","","","","","","","","","","","","",""
"null","audio/beep-329314.mp3","null","audio-keyboard-response","183","2.1.0","280420","F=YES, J=NO","y9umytakqf","2","79","83","75","","","","","","","","","","","","","","","",""
"null","audio/bridge.wav","null","audio-keyboard-response","184","2.1.0","280980","F=YES, J=NO","y9umytakqf","2","79","83","75","","","","","","","","","","","","","","","",""
"724","
          <p id=""word"" style=""font-size: 40px;"">crack</p>
          <p style=""font-size: 16px;"">F = YES &nbsp;&nbsp;&nbsp; J = NO</p>
        ","f","html-keyboard-response","185","2.1.0","281705","F=YES, J=NO","y9umytakqf","2","79","83","75","","","","","","","","","crack","bridge","filler","filler","f","true","",""
"null","<p style=""font-size: 50px;"">+</p>","null","html-keyboard-response","186","2.1.0","282012","F=YES, J=NO","y9umytakqf","2","79","83","75","","","","","","","","","","","","","","","",""
"null","audio/beep-329314.mp3","null","audio-keyboard-response","187","2.1.0","283540","F=YES, J=NO","y9umytakqf","2","79","83","75","","","","","","","","","","","","","","","",""
"null","audio/hawk1.wav","null","audio-keyboard-response","188","2.1.0","284360","F=YES, J=NO","y9umytakqf","2","79","83","75","","","","","","","","","","","","","","","",""
"749","
          <p id=""word"" style=""font-size: 40px;"">ostach</p>
          <p style=""font-size: 16px;"">F = YES &nbsp;&nbsp;&nbsp; J = NO</p>
        ","j","html-keyboard-response","189","2.1.0","285111","F=YES, J=NO","y9umytakqf","2","79","83","75","","","","","","","","","ostach","hawk1","pseudoword","pseudoword","j","true","",""
"null","<p style=""font-size: 50px;"">+</p>","null","html-keyboard-response","190","2.1.0","285426","F=YES, J=NO","y9umytakqf","2","79","83","75","","","","","","","","","","","","","","","",""
"null","audio/beep-329314.mp3","null","audio-keyboard-response","191","2.1.0","286961","F=YES, J=NO","y9umytakqf","2","79","83","75","","","","","","","","","","","","","","","",""
"null","audio/planet1.wav","null","audio-keyboard-response","192","2.1.0","287561","F=YES, J=NO","y9umytakqf","2","79","83","75","","","","","","","","","","","","","","","",""
"1395","
          <p id=""word"" style=""font-size: 40px;"">cratched</p>
          <p style=""font-size: 16px;"">F = YES &nbsp;&nbsp;&nbsp; J = NO</p>
        ","f","html-keyboard-response","193","2.1.0","288957","F=YES, J=NO","y9umytakqf","2","79","83","75","","","","","","","","","cratched","planet1","pseudoword","pseudoword","j","false","",""
"null","<p style=""font-size: 50px;"">+</p>","null","html-keyboard-response","194","2.1.0","289262","F=YES, J=NO","y9umytakqf","2","79","83","75","","","","","","","","","","","","","","","",""
"null","audio/beep-329314.mp3","null","audio-keyboard-response","195","2.1.0","290800","F=YES, J=NO","y9umytakqf","2","79","83","75","","","","","","","","","","","","","","","",""
"null","audio/ego.wav","null","audio-keyboard-response","196","2.1.0","291360","F=YES, J=NO","y9umytakqf","2","79","83","75","","","","","","","","","","","","","","","",""
"844","
          <p id=""word"" style=""font-size: 40px;"">bruite</p>
          <p style=""font-size: 16px;"">F = YES &nbsp;&nbsp;&nbsp; J = NO</p>
        ","j","html-keyboard-response","197","2.1.0","292204","F=YES, J=NO","y9umytakqf","2","79","83","75","","","","","","","","","bruite","ego","pseudoword","pseudoword","j","true","",""
"null","<p style=""font-size: 50px;"">+</p>","null","html-keyboard-response","198","2.1.0","292508","F=YES, J=NO","y9umytakqf","2","79","83","75","","","","","","","","","","","","","","","",""
"null","audio/beep-329314.mp3","null","audio-keyboard-response","199","2.1.0","294040","F=YES, J=NO","y9umytakqf","2","79","83","75","","","","","","","","","","","","","","","",""
"null","audio/arm.wav","null","audio-keyboard-response","200","2.1.0","294581","F=YES, J=NO","y9umytakqf","2","79","83","75","","","","","","","","","","","","","","","",""
"936","
          <p id=""word"" style=""font-size: 40px;"">pigne</p>
          <p style=""font-size: 16px;"">F = YES &nbsp;&nbsp;&nbsp; J = NO</p>
        ","j","html-keyboard-response","201","2.1.0","295518","F=YES, J=NO","y9umytakqf","2","79","83","75","","","","","","","","","pigne","arm","pseudoword","pseudoword","j","true","",""
"null","<p style=""font-size: 50px;"">+</p>","null","html-keyboard-response","202","2.1.0","295829","F=YES, J=NO","y9umytakqf","2","79","83","75","","","","","","","","","","","","","","","",""
"null","audio/beep-329314.mp3","null","audio-keyboard-response","203","2.1.0","297360","F=YES, J=NO","y9umytakqf","2","79","83","75","","","","","","","","","","","","","","","",""
"null","audio/topic.wav","null","audio-keyboard-response","204","2.1.0","297941","F=YES, J=NO","y9umytakqf","2","79","83","75","","","","","","","","","","","","","","","",""
"1291","
          <p id=""word"" style=""font-size: 40px;"">infortuitist</p>
          <p style=""font-size: 16px;"">F = YES &nbsp;&nbsp;&nbsp; J = NO</p>
        ","j","html-keyboard-response","205","2.1.0","299234","F=YES, J=NO","y9umytakqf","2","79","83","75","","","","","","","","","infortuitist","topic","pseudoword","pseudoword","j","true","",""
"null","<p style=""font-size: 50px;"">+</p>","null","html-keyboard-response","206","2.1.0","299535","F=YES, J=NO","y9umytakqf","2","79","83","75","","","","","","","","","","","","","","","",""
"null","audio/beep-329314.mp3","null","audio-keyboard-response","207","2.1.0","301060","F=YES, J=NO","y9umytakqf","2","79","83","75","","","","","","","","","","","","","","","",""
"null","audio/vehicle1.wav","null","audio-keyboard-response","208","2.1.0","301720","F=YES, J=NO","y9umytakqf","2","79","83","75","","","","","","","","","","","","","","","",""
"1411","
          <p id=""word"" style=""font-size: 40px;"">dropt</p>
          <p style=""font-size: 16px;"">F = YES &nbsp;&nbsp;&nbsp; J = NO</p>
        ","j","html-keyboard-response","209","2.1.0","303132","F=YES, J=NO","y9umytakqf","2","79","83","75","","","","","","","","","dropt","vehicle1","pseudoword","pseudoword","j","true","",""
"null","<p style=""font-size: 50px;"">+</p>","null","html-keyboard-response","210","2.1.0","303442","F=YES, J=NO","y9umytakqf","2","79","83","75","","","","","","","","","","","","","","","",""
"null","audio/beep-329314.mp3","null","audio-keyboard-response","211","2.1.0","304980","F=YES, J=NO","y9umytakqf","2","79","83","75","","","","","","","","","","","","","","","",""
"null","audio/kettle1.wav","null","audio-keyboard-response","212","2.1.0","305440","F=YES, J=NO","y9umytakqf","2","79","83","75","","","","","","","","","","","","","","","",""
"733","
          <p id=""word"" style=""font-size: 40px;"">navigate</p>
          <p style=""font-size: 16px;"">F = YES &nbsp;&nbsp;&nbsp; J = NO</p>
        ","f","html-keyboard-response","213","2.1.0","306174","F=YES, J=NO","y9umytakqf","2","79","83","75","","","","","","","","","navigate","kettle1","unrelated","experimental","f","true","",""
"null","<p style=""font-size: 50px;"">+</p>","null","html-keyboard-response","214","2.1.0","306482","F=YES, J=NO","y9umytakqf","2","79","83","75","","","","","","","","","","","","","","","",""
"null","audio/beep-329314.mp3","null","audio-keyboard-response","215","2.1.0","308021","F=YES, J=NO","y9umytakqf","2","79","83","75","","","","","","","","","","","","","","","",""
"null","audio/breath.wav","null","audio-keyboard-response","216","2.1.0","308600","F=YES, J=NO","y9umytakqf","2","79","83","75","","","","","","","","","","","","","","","",""
"893","
          <p id=""word"" style=""font-size: 40px;"">pack</p>
          <p style=""font-size: 16px;"">F = YES &nbsp;&nbsp;&nbsp; J = NO</p>
        ","f","html-keyboard-response","217","2.1.0","309495","F=YES, J=NO","y9umytakqf","2","79","83","75","","","","","","","","","pack","breath","filler","filler","f","true","",""
"null","<p style=""font-size: 50px;"">+</p>","null","html-keyboard-response","218","2.1.0","309803","F=YES, J=NO","y9umytakqf","2","79","83","75","","","","","","","","","","","","","","","",""
"null","audio/beep-329314.mp3","null","audio-keyboard-response","219","2.1.0","311341","F=YES, J=NO","y9umytakqf","2","79","83","75","","","","","","","","","","","","","","","",""
"null","audio/cancer1.wav","null","audio-keyboard-response","220","2.1.0","311880","F=YES, J=NO","y9umytakqf","2","79","83","75","","","","","","","","","","","","","","","",""
"644","
          <p id=""word"" style=""font-size: 40px;"">draw</p>
          <p style=""font-size: 16px;"">F = YES &nbsp;&nbsp;&nbsp; J = NO</p>
        ","f","html-keyboard-response","221","2.1.0","312525","F=YES, J=NO","y9umytakqf","2","79","83","75","","","","","","","","","draw","cancer1","filler","filler","f","true","",""
"null","<p style=""font-size: 50px;"">+</p>","null","html-keyboard-response","222","2.1.0","312828","F=YES, J=NO","y9umytakqf","2","79","83","75","","","","","","","","","","","","","","","",""
"null","audio/beep-329314.mp3","null","audio-keyboard-response","223","2.1.0","314360","F=YES, J=NO","y9umytakqf","2","79","83","75","","","","","","","","","","","","","","","",""
"null","audio/golf1.wav","null","audio-keyboard-response","224","2.1.0","314940","F=YES, J=NO","y9umytakqf","2","79","83","75","","","","","","","","","","","","","","","",""
"1090","
          <p id=""word"" style=""font-size: 40px;"">drabble</p>
          <p style=""font-size: 16px;"">F = YES &nbsp;&nbsp;&nbsp; J = NO</p>
        ","j","html-keyboard-response","225","2.1.0","316031","F=YES, J=NO","y9umytakqf","2","79","83","75","","","","","","","","","drabble","golf1","pseudoword","pseudoword","j","true","",""
"null","<p style=""font-size: 50px;"">+</p>","null","html-keyboard-response","226","2.1.0","316338","F=YES, J=NO","y9umytakqf","2","79","83","75","","","","","","","","","","","","","","","",""
"null","audio/beep-329314.mp3","null","audio-keyboard-response","227","2.1.0","317881","F=YES, J=NO","y9umytakqf","2","79","83","75","","","","","","","","","","","","","","","",""
"null","audio/mood1.wav","null","audio-keyboard-response","228","2.1.0","318361","F=YES, J=NO","y9umytakqf","2","79","83","75","","","","","","","","","","","","","","","",""
"502","
          <p id=""word"" style=""font-size: 40px;"">give</p>
          <p style=""font-size: 16px;"">F = YES &nbsp;&nbsp;&nbsp; J = NO</p>
        ","f","html-keyboard-response","229","2.1.0","318863","F=YES, J=NO","y9umytakqf","2","79","83","75","","","","","","","","","give","mood1","unrelated","experimental","f","true","",""
"31526","<p>Excellent! You have finished block 1 of 8.</p>
                     <p>Feel free to take a 30 second break.</p>
                     <p>Press any key when you're ready to continue.</p>"," ","html-keyboard-response","230","2.1.0","350391","F=YES, J=NO","y9umytakqf","2","79","83","75","","","","","","","","","","","","","","","",""
"2120","<p>Starting main block 2 of 8. Press any key to continue.</p>"," ","html-keyboard-response","231","2.1.0","352511","F=YES, J=NO","y9umytakqf","2","79","83","75","","","","","","","","","","","","","","","",""
"null","<p style=""font-size: 50px;"">+</p>","null","html-keyboard-response","232","2.1.0","352819","F=YES, J=NO","y9umytakqf","2","79","83","75","","","","","","","","","","","","","","","",""
"null","audio/beep-329314.mp3","null","audio-keyboard-response","233","2.1.0","354680","F=YES, J=NO","y9umytakqf","2","79","83","75","","","","","","","","","","","","","","","",""
"null","audio/holiday1.wav","null","audio-keyboard-response","234","2.1.0","355379","F=YES, J=NO","y9umytakqf","2","79","83","75","","","","","","","","","","","","","","","",""
"1099","
          <p id=""word"" style=""font-size: 40px;"">drivets</p>
          <p style=""font-size: 16px;"">F = YES &nbsp;&nbsp;&nbsp; J = NO</p>
        ","f","html-keyboard-response","235","2.1.0","356479","F=YES, J=NO","y9umytakqf","2","79","83","75","","","","","","","","","drivets","holiday1","pseudoword","pseudoword","j","false","",""
"null","<p style=""font-size: 50px;"">+</p>","null","html-keyboard-response","236","2.1.0","356785","F=YES, J=NO","y9umytakqf","2","79","83","75","","","","","","","","","","","","","","","",""
"null","audio/beep-329314.mp3","null","audio-keyboard-response","237","2.1.0","358319","F=YES, J=NO","y9umytakqf","2","79","83","75","","","","","","","","","","","","","","","",""
"null","audio/pig.wav","null","audio-keyboard-response","238","2.1.0","358699","F=YES, J=NO","y9umytakqf","2","79","83","75","","","","","","","","","","","","","","","",""
"718","
          <p id=""word"" style=""font-size: 40px;"">feed</p>
          <p style=""font-size: 16px;"">F = YES &nbsp;&nbsp;&nbsp; J = NO</p>
        ","f","html-keyboard-response","239","2.1.0","359419","F=YES, J=NO","y9umytakqf","2","79","83","75","","","","","","","","","feed","pig","literal","experimental","f","true","",""
"null","<p style=""font-size: 50px;"">+</p>","null","html-keyboard-response","240","2.1.0","359720","F=YES, J=NO","y9umytakqf","2","79","83","75","","","","","","","","","","","","","","","",""
"null","audio/beep-329314.mp3","null","audio-keyboard-response","241","2.1.0","361259","F=YES, J=NO","y9umytakqf","2","79","83","75","","","","","","","","","","","","","","","",""
"null","audio/dollar.wav","null","audio-keyboard-response","242","2.1.0","361660","F=YES, J=NO","y9umytakqf","2","79","83","75","","","","","","","","","","","","","","","",""
"878","
          <p id=""word"" style=""font-size: 40px;"">gliptism</p>
          <p style=""font-size: 16px;"">F = YES &nbsp;&nbsp;&nbsp; J = NO</p>
        ","j","html-keyboard-response","243","2.1.0","362539","F=YES, J=NO","y9umytakqf","2","79","83","75","","","","","","","","","gliptism","dollar","pseudoword","pseudoword","j","true","",""
"null","<p style=""font-size: 50px;"">+</p>","null","html-keyboard-response","244","2.1.0","362841","F=YES, J=NO","y9umytakqf","2","79","83","75","","","","","","","","","","","","","","","",""
"null","audio/beep-329314.mp3","null","audio-keyboard-response","245","2.1.0","364379","F=YES, J=NO","y9umytakqf","2","79","83","75","","","","","","","","","","","","","","","",""
"null","audio/effort.wav","null","audio-keyboard-response","246","2.1.0","364979","F=YES, J=NO","y9umytakqf","2","79","83","75","","","","","","","","","","","","","","","",""
"925","
          <p id=""word"" style=""font-size: 40px;"">whonk</p>
          <p style=""font-size: 16px;"">F = YES &nbsp;&nbsp;&nbsp; J = NO</p>
        ","j","html-keyboard-response","247","2.1.0","365905","F=YES, J=NO","y9umytakqf","2","79","83","75","","","","","","","","","whonk","effort","pseudoword","pseudoword","j","true","",""
"null","<p style=""font-size: 50px;"">+</p>","null","html-keyboard-response","248","2.1.0","366219","F=YES, J=NO","y9umytakqf","2","79","83","75","","","","","","","","","","","","","","","",""
"null","audio/beep-329314.mp3","null","audio-keyboard-response","249","2.1.0","367759","F=YES, J=NO","y9umytakqf","2","79","83","75","","","","","","","","","","","","","","","",""
"null","audio/pattern.wav","null","audio-keyboard-response","250","2.1.0","368280","F=YES, J=NO","y9umytakqf","2","79","83","75","","","","","","","","","","","","","","","",""
"558","
          <p id=""word"" style=""font-size: 40px;"">defeat</p>
          <p style=""font-size: 16px;"">F = YES &nbsp;&nbsp;&nbsp; J = NO</p>
        ","f","html-keyboard-response","251","2.1.0","368839","F=YES, J=NO","y9umytakqf","2","79","83","75","","","","","","","","","defeat","pattern","unrelated","experimental","f","true","",""
"null","<p style=""font-size: 50px;"">+</p>","null","html-keyboard-response","252","2.1.0","369142","F=YES, J=NO","y9umytakqf","2","79","83","75","","","","","","","","","","","","","","","",""
"null","audio/beep-329314.mp3","null","audio-keyboard-response","253","2.1.0","370680","F=YES, J=NO","y9umytakqf","2","79","83","75","","","","","","","","","","","","","","","",""
"null","audio/noise1.wav","null","audio-keyboard-response","254","2.1.0","371280","F=YES, J=NO","y9umytakqf","2","79","83","75","","","","","","","","","","","","","","","",""
"556","
          <p id=""word"" style=""font-size: 40px;"">build</p>
          <p style=""font-size: 16px;"">F = YES &nbsp;&nbsp;&nbsp; J = NO</p>
        ","f","html-keyboard-response","255","2.1.0","371836","F=YES, J=NO","y9umytakqf","2","79","83","75","","","","","","","","","build","noise1","unrelated","experimental","f","true","",""
"null","<p style=""font-size: 50px;"">+</p>","null","html-keyboard-response","256","2.1.0","372149","F=YES, J=NO","y9umytakqf","2","79","83","75","","","","","","","","","","","","","","","",""
"null","audio/beep-329314.mp3","null","audio-keyboard-response","257","2.1.0","373680","F=YES, J=NO","y9umytakqf","2","79","83","75","","","","","","","","","","","","","","","",""
"null","audio/breath.wav","null","audio-keyboard-response","258","2.1.0","374240","F=YES, J=NO","y9umytakqf","2","79","83","75","","","","","","","","","","","","","","","",""
"769","
          <p id=""word"" style=""font-size: 40px;"">twets</p>
          <p style=""font-size: 16px;"">F = YES &nbsp;&nbsp;&nbsp; J = NO</p>
        ","j","html-keyboard-response","259","2.1.0","375011","F=YES, J=NO","y9umytakqf","2","79","83","75","","","","","","","","","twets","breath","pseudoword","pseudoword","j","true","",""
"null","<p style=""font-size: 50px;"">+</p>","null","html-keyboard-response","260","2.1.0","375319","F=YES, J=NO","y9umytakqf","2","79","83","75","","","","","","","","","","","","","","","",""
"null","audio/beep-329314.mp3","null","audio-keyboard-response","261","2.1.0","376859","F=YES, J=NO","y9umytakqf","2","79","83","75","","","","","","","","","","","","","","","",""
"null","audio/camera1.wav","null","audio-keyboard-response","262","2.1.0","377359","F=YES, J=NO","y9umytakqf","2","79","83","75","","","","","","","","","","","","","","","",""
"571","
          <p id=""word"" style=""font-size: 40px;"">bring</p>
          <p style=""font-size: 16px;"">F = YES &nbsp;&nbsp;&nbsp; J = NO</p>
        ","f","html-keyboard-response","263","2.1.0","377930","F=YES, J=NO","y9umytakqf","2","79","83","75","","","","","","","","","bring","camera1","literal","experimental","f","true","",""
"null","<p style=""font-size: 50px;"">+</p>","null","html-keyboard-response","264","2.1.0","378242","F=YES, J=NO","y9umytakqf","2","79","83","75","","","","","","","","","","","","","","","",""
"null","audio/beep-329314.mp3","null","audio-keyboard-response","265","2.1.0","379780","F=YES, J=NO","y9umytakqf","2","79","83","75","","","","","","","","","","","","","","","",""
"null","audio/floor.wav","null","audio-keyboard-response","266","2.1.0","380340","F=YES, J=NO","y9umytakqf","2","79","83","75","","","","","","","","","","","","","","","",""
"888","
          <p id=""word"" style=""font-size: 40px;"">mop</p>
          <p style=""font-size: 16px;"">F = YES &nbsp;&nbsp;&nbsp; J = NO</p>
        ","f","html-keyboard-response","267","2.1.0","381230","F=YES, J=NO","y9umytakqf","2","79","83","75","","","","","","","","","mop","floor","filler","filler","f","true","",""
"null","<p style=""font-size: 50px;"">+</p>","null","html-keyboard-response","268","2.1.0","381539","F=YES, J=NO","y9umytakqf","2","79","83","75","","","","","","","","","","","","","","","",""
"null","audio/beep-329314.mp3","null","audio-keyboard-response","269","2.1.0","383080","F=YES, J=NO","y9umytakqf","2","79","83","75","","","","","","","","","","","","","","","",""
"null","audio/fortune1.wav","null","audio-keyboard-response","270","2.1.0","383859","F=YES, J=NO","y9umytakqf","2","79","83","75","","","","","","","","","","","","","","","",""
"562","
          <p id=""word"" style=""font-size: 40px;"">spend</p>
          <p style=""font-size: 16px;"">F = YES &nbsp;&nbsp;&nbsp; J = NO</p>
        ","f","html-keyboard-response","271","2.1.0","384422","F=YES, J=NO","y9umytakqf","2","79","83","75","","","","","","","","","spend","fortune1","literal","experimental","f","true","",""
"null","<p style=""font-size: 50px;"">+</p>","null","html-keyboard-response","272","2.1.0","384730","F=YES, J=NO","y9umytakqf","2","79","83","75","","","","","","","","","","","","","","","",""
"null","audio/beep-329314.mp3","null","audio-keyboard-response","273","2.1.0","386260","F=YES, J=NO","y9umytakqf","2","79","83","75","","","","","","","","","","","","","","","",""
"null","audio/roof1.wav","null","audio-keyboard-response","274","2.1.0","386799","F=YES, J=NO","y9umytakqf","2","79","83","75","","","","","","","","","","","","","","","",""
"826","
          <p id=""word"" style=""font-size: 40px;"">wronb</p>
          <p style=""font-size: 16px;"">F = YES &nbsp;&nbsp;&nbsp; J = NO</p>
        ","j","html-keyboard-response","275","2.1.0","387626","F=YES, J=NO","y9umytakqf","2","79","83","75","","","","","","","","","wronb","roof1","pseudoword","pseudoword","j","true","",""
"null","<p style=""font-size: 50px;"">+</p>","null","html-keyboard-response","276","2.1.0","387933","F=YES, J=NO","y9umytakqf","2","79","83","75","","","","","","","","","","","","","","","",""
"null","audio/beep-329314.mp3","null","audio-keyboard-response","277","2.1.0","389459","F=YES, J=NO","y9umytakqf","2","79","83","75","","","","","","","","","","","","","","","",""
"null","audio/table1.wav","null","audio-keyboard-response","278","2.1.0","389959","F=YES, J=NO","y9umytakqf","2","79","83","75","","","","","","","","","","","","","","","",""
"869","
          <p id=""word"" style=""font-size: 40px;"">stimb</p>
          <p style=""font-size: 16px;"">F = YES &nbsp;&nbsp;&nbsp; J = NO</p>
        ","j","html-keyboard-response","279","2.1.0","390829","F=YES, J=NO","y9umytakqf","2","79","83","75","","","","","","","","","stimb","table1","pseudoword","pseudoword","j","true","",""
"null","<p style=""font-size: 50px;"">+</p>","null","html-keyboard-response","280","2.1.0","391136","F=YES, J=NO","y9umytakqf","2","79","83","75","","","","","","","","","","","","","","","",""
"null","audio/beep-329314.mp3","null","audio-keyboard-response","281","2.1.0","392659","F=YES, J=NO","y9umytakqf","2","79","83","75","","","","","","","","","","","","","","","",""
"null","audio/uncle1.wav","null","audio-keyboard-response","282","2.1.0","393139","F=YES, J=NO","y9umytakqf","2","79","83","75","","","","","","","","","","","","","","","",""
"1147","
          <p id=""word"" style=""font-size: 40px;"">dramble</p>
          <p style=""font-size: 16px;"">F = YES &nbsp;&nbsp;&nbsp; J = NO</p>
        ","j","html-keyboard-response","283","2.1.0","394287","F=YES, J=NO","y9umytakqf","2","79","83","75","","","","","","","","","dramble","uncle1","pseudoword","pseudoword","j","true","",""
"null","<p style=""font-size: 50px;"">+</p>","null","html-keyboard-response","284","2.1.0","394590","F=YES, J=NO","y9umytakqf","2","79","83","75","","","","","","","","","","","","","","","",""
"null","audio/beep-329314.mp3","null","audio-keyboard-response","285","2.1.0","396120","F=YES, J=NO","y9umytakqf","2","79","83","75","","","","","","","","","","","","","","","",""
"null","audio/truth1.wav","null","audio-keyboard-response","286","2.1.0","396678","F=YES, J=NO","y9umytakqf","2","79","83","75","","","","","","","","","","","","","","","",""
"801","
          <p id=""word"" style=""font-size: 40px;"">calitom</p>
          <p style=""font-size: 16px;"">F = YES &nbsp;&nbsp;&nbsp; J = NO</p>
        ","j","html-keyboard-response","287","2.1.0","397480","F=YES, J=NO","y9umytakqf","2","79","83","75","","","","","","","","","calitom","truth1","pseudoword","pseudoword","j","true","",""
"null","<p style=""font-size: 50px;"">+</p>","null","html-keyboard-response","288","2.1.0","397795","F=YES, J=NO","y9umytakqf","2","79","83","75","","","","","","","","","","","","","","","",""
"null","audio/beep-329314.mp3","null","audio-keyboard-response","289","2.1.0","399320","F=YES, J=NO","y9umytakqf","2","79","83","75","","","","","","","","","","","","","","","",""
"null","audio/road.wav","null","audio-keyboard-response","290","2.1.0","399759","F=YES, J=NO","y9umytakqf","2","79","83","75","","","","","","","","","","","","","","","",""
"1492","
          <p id=""word"" style=""font-size: 40px;"">wappings</p>
          <p style=""font-size: 16px;"">F = YES &nbsp;&nbsp;&nbsp; J = NO</p>
        ","j","html-keyboard-response","291","2.1.0","401251","F=YES, J=NO","y9umytakqf","2","79","83","75","","","","","","","","","wappings","road","pseudoword","pseudoword","j","true","",""
"null","<p style=""font-size: 50px;"">+</p>","null","html-keyboard-response","292","2.1.0","401565","F=YES, J=NO","y9umytakqf","2","79","83","75","","","","","","","","","","","","","","","",""
"null","audio/beep-329314.mp3","null","audio-keyboard-response","293","2.1.0","403099","F=YES, J=NO","y9umytakqf","2","79","83","75","","","","","","","","","","","","","","","",""
"null","audio/stain.wav","null","audio-keyboard-response","294","2.1.0","403759","F=YES, J=NO","y9umytakqf","2","79","83","75","","","","","","","","","","","","","","","",""
"1365","
          <p id=""word"" style=""font-size: 40px;"">rumpsied</p>
          <p style=""font-size: 16px;"">F = YES &nbsp;&nbsp;&nbsp; J = NO</p>
        ","j","html-keyboard-response","295","2.1.0","405126","F=YES, J=NO","y9umytakqf","2","79","83","75","","","","","","","","","rumpsied","stain","pseudoword","pseudoword","j","true","",""
"44107","<p>Excellent! You have finished block 2 of 8.</p>
                     <p>Feel free to take a 30 second break.</p>
                     <p>Press any key when you're ready to continue.</p>","F11","html-keyboard-response","296","2.1.0","449234","F=YES, J=NO","y9umytakqf","2","79","83","75","","","","","","","","","","","","","","","",""
"1903","<p>Starting main block 3 of 8. Press any key to continue.</p>","F11","html-keyboard-response","297","2.1.0","451138","F=YES, J=NO","y9umytakqf","2","79","83","75","","","","","","","","","","","","","","","",""
"null","<p style=""font-size: 50px;"">+</p>","null","html-keyboard-response","298","2.1.0","451446","F=YES, J=NO","y9umytakqf","2","79","83","75","","","","","","","","","","","","","","","",""
"null","audio/beep-329314.mp3","null","audio-keyboard-response","299","2.1.0","453316","F=YES, J=NO","y9umytakqf","2","79","83","75","","","","","","","","","","","","","","","",""
"null","audio/flaw.wav","null","audio-keyboard-response","300","2.1.0","453997","F=YES, J=NO","y9umytakqf","2","79","83","75","","","","","","","","","","","","","","","",""
"698","
          <p id=""word"" style=""font-size: 40px;"">thwool</p>
          <p style=""font-size: 16px;"">F = YES &nbsp;&nbsp;&nbsp; J = NO</p>
        ","j","html-keyboard-response","301","2.1.0","454697","F=YES, J=NO","y9umytakqf","2","79","83","75","","","","","","","","","thwool","flaw","pseudoword","pseudoword","j","true","",""
"null","<p style=""font-size: 50px;"">+</p>","null","html-keyboard-response","302","2.1.0","455011","F=YES, J=NO","y9umytakqf","2","79","83","75","","","","","","","","","","","","","","","",""
"null","audio/beep-329314.mp3","null","audio-keyboard-response","303","2.1.0","456537","F=YES, J=NO","y9umytakqf","2","79","83","75","","","","","","","","","","","","","","","",""
"null","audio/neck.wav","null","audio-keyboard-response","304","2.1.0","457415","F=YES, J=NO","y9umytakqf","2","79","83","75","","","","","","","","","","","","","","","",""
"750","
          <p id=""word"" style=""font-size: 40px;"">werling</p>
          <p style=""font-size: 16px;"">F = YES &nbsp;&nbsp;&nbsp; J = NO</p>
        ","j","html-keyboard-response","305","2.1.0","458167","F=YES, J=NO","y9umytakqf","2","79","83","75","","","","","","","","","werling","neck","pseudoword","pseudoword","j","true","",""
"null","<p style=""font-size: 50px;"">+</p>","null","html-keyboard-response","306","2.1.0","458476","F=YES, J=NO","y9umytakqf","2","79","83","75","","","","","","","","","","","","","","","",""
"null","audio/beep-329314.mp3","null","audio-keyboard-response","307","2.1.0","460017","F=YES, J=NO","y9umytakqf","2","79","83","75","","","","","","","","","","","","","","","",""
"null","audio/beach1.wav","null","audio-keyboard-response","308","2.1.0","460597","F=YES, J=NO","y9umytakqf","2","79","83","75","","","","","","","","","","","","","","","",""
"570","
          <p id=""word"" style=""font-size: 40px;"">cut</p>
          <p style=""font-size: 16px;"">F = YES &nbsp;&nbsp;&nbsp; J = NO</p>
        ","f","html-keyboard-response","309","2.1.0","461169","F=YES, J=NO","y9umytakqf","2","79","83","75","","","","","","","","","cut","beach1","unrelated","experimental","f","true","",""
"null","<p style=""font-size: 50px;"">+</p>","null","html-keyboard-response","310","2.1.0","461483","F=YES, J=NO","y9umytakqf","2","79","83","75","","","","","","","","","","","","","","","",""
"null","audio/beep-329314.mp3","null","audio-keyboard-response","311","2.1.0","463016","F=YES, J=NO","y9umytakqf","2","79","83","75","","","","","","","","","","","","","","","",""
"null","audio/handle.wav","null","audio-keyboard-response","312","2.1.0","463656","F=YES, J=NO","y9umytakqf","2","79","83","75","","","","","","","","","","","","","","","",""
"742","
          <p id=""word"" style=""font-size: 40px;"">moutes</p>
          <p style=""font-size: 16px;"">F = YES &nbsp;&nbsp;&nbsp; J = NO</p>
        ","j","html-keyboard-response","313","2.1.0","464400","F=YES, J=NO","y9umytakqf","2","79","83","75","","","","","","","","","moutes","handle","pseudoword","pseudoword","j","true","",""
"null","<p style=""font-size: 50px;"">+</p>","null","html-keyboard-response","314","2.1.0","464703","F=YES, J=NO","y9umytakqf","2","79","83","75","","","","","","","","","","","","","","","",""
"null","audio/beep-329314.mp3","null","audio-keyboard-response","315","2.1.0","466236","F=YES, J=NO","y9umytakqf","2","79","83","75","","","","","","","","","","","","","","","",""
"null","audio/winter.wav","null","audio-keyboard-response","316","2.1.0","466797","F=YES, J=NO","y9umytakqf","2","79","83","75","","","","","","","","","","","","","","","",""
"567","
          <p id=""word"" style=""font-size: 40px;"">expose</p>
          <p style=""font-size: 16px;"">F = YES &nbsp;&nbsp;&nbsp; J = NO</p>
        ","f","html-keyboard-response","317","2.1.0","467365","F=YES, J=NO","y9umytakqf","2","79","83","75","","","","","","","","","expose","winter","unrelated","experimental","f","true","",""
"null","<p style=""font-size: 50px;"">+</p>","null","html-keyboard-response","318","2.1.0","467668","F=YES, J=NO","y9umytakqf","2","79","83","75","","","","","","","","","","","","","","","",""
"null","audio/beep-329314.mp3","null","audio-keyboard-response","319","2.1.0","469196","F=YES, J=NO","y9umytakqf","2","79","83","75","","","","","","","","","","","","","","","",""
"null","audio/key1.wav","null","audio-keyboard-response","320","2.1.0","469576","F=YES, J=NO","y9umytakqf","2","79","83","75","","","","","","","","","","","","","","","",""
"575","
          <p id=""word"" style=""font-size: 40px;"">lose</p>
          <p style=""font-size: 16px;"">F = YES &nbsp;&nbsp;&nbsp; J = NO</p>
        ","f","html-keyboard-response","321","2.1.0","470152","F=YES, J=NO","y9umytakqf","2","79","83","75","","","","","","","","","lose","key1","literal","experimental","f","true","",""
"null","<p style=""font-size: 50px;"">+</p>","null","html-keyboard-response","322","2.1.0","470462","F=YES, J=NO","y9umytakqf","2","79","83","75","","","","","","","","","","","","","","","",""
"null","audio/beep-329314.mp3","null","audio-keyboard-response","323","2.1.0","471996","F=YES, J=NO","y9umytakqf","2","79","83","75","","","","","","","","","","","","","","","",""
"null","audio/tomato.wav","null","audio-keyboard-response","324","2.1.0","472856","F=YES, J=NO","y9umytakqf","2","79","83","75","","","","","","","","","","","","","","","",""
"1056","
          <p id=""word"" style=""font-size: 40px;"">gladies</p>
          <p style=""font-size: 16px;"">F = YES &nbsp;&nbsp;&nbsp; J = NO</p>
        ","j","html-keyboard-response","325","2.1.0","473913","F=YES, J=NO","y9umytakqf","2","79","83","75","","","","","","","","","gladies","tomato","pseudoword","pseudoword","j","true","",""
"null","<p style=""font-size: 50px;"">+</p>","null","html-keyboard-response","326","2.1.0","474216","F=YES, J=NO","y9umytakqf","2","79","83","75","","","","","","","","","","","","","","","",""
"null","audio/beep-329314.mp3","null","audio-keyboard-response","327","2.1.0","475756","F=YES, J=NO","y9umytakqf","2","79","83","75","","","","","","","","","","","","","","","",""
"null","audio/gift1.wav","null","audio-keyboard-response","328","2.1.0","476236","F=YES, J=NO","y9umytakqf","2","79","83","75","","","","","","","","","","","","","","","",""
"829","
          <p id=""word"" style=""font-size: 40px;"">protsh</p>
          <p style=""font-size: 16px;"">F = YES &nbsp;&nbsp;&nbsp; J = NO</p>
        ","j","html-keyboard-response","329","2.1.0","477066","F=YES, J=NO","y9umytakqf","2","79","83","75","","","","","","","","","protsh","gift1","pseudoword","pseudoword","j","true","",""
"null","<p style=""font-size: 50px;"">+</p>","null","html-keyboard-response","330","2.1.0","477370","F=YES, J=NO","y9umytakqf","2","79","83","75","","","","","","","","","","","","","","","",""
"null","audio/beep-329314.mp3","null","audio-keyboard-response","331","2.1.0","478896","F=YES, J=NO","y9umytakqf","2","79","83","75","","","","","","","","","","","","","","","",""
"null","audio/bishop1.wav","null","audio-keyboard-response","332","2.1.0","479497","F=YES, J=NO","y9umytakqf","2","79","83","75","","","","","","","","","","","","","","","",""
"572","
          <p id=""word"" style=""font-size: 40px;"">play</p>
          <p style=""font-size: 16px;"">F = YES &nbsp;&nbsp;&nbsp; J = NO</p>
        ","f","html-keyboard-response","333","2.1.0","480071","F=YES, J=NO","y9umytakqf","2","79","83","75","","","","","","","","","play","bishop1","filler","filler","f","true","",""
"null","<p style=""font-size: 50px;"">+</p>","null","html-keyboard-response","334","2.1.0","480379","F=YES, J=NO","y9umytakqf","2","79","83","75","","","","","","","","","","","","","","","",""
"null","audio/beep-329314.mp3","null","audio-keyboard-response","335","2.1.0","481917","F=YES, J=NO","y9umytakqf","2","79","83","75","","","","","","","","","","","","","","","",""
"null","audio/gossip1.wav","null","audio-keyboard-response","336","2.1.0","482797","F=YES, J=NO","y9umytakqf","2","79","83","75","","","","","","","","","","","","","","","",""
"976","
          <p id=""word"" style=""font-size: 40px;"">camerish</p>
          <p style=""font-size: 16px;"">F = YES &nbsp;&nbsp;&nbsp; J = NO</p>
        ","j","html-keyboard-response","337","2.1.0","483774","F=YES, J=NO","y9umytakqf","2","79","83","75","","","","","","","","","camerish","gossip1","pseudoword","pseudoword","j","true","",""
"null","<p style=""font-size: 50px;"">+</p>","null","html-keyboard-response","338","2.1.0","484078","F=YES, J=NO","y9umytakqf","2","79","83","75","","","","","","","","","","","","","","","",""
"null","audio/beep-329314.mp3","null","audio-keyboard-response","339","2.1.0","485617","F=YES, J=NO","y9umytakqf","2","79","83","75","","","","","","","","","","","","","","","",""
"null","audio/mouth1.wav","null","audio-keyboard-response","340","2.1.0","486416","F=YES, J=NO","y9umytakqf","2","79","83","75","","","","","","","","","","","","","","","",""
"564","
          <p id=""word"" style=""font-size: 40px;"">close</p>
          <p style=""font-size: 16px;"">F = YES &nbsp;&nbsp;&nbsp; J = NO</p>
        ","f","html-keyboard-response","341","2.1.0","486982","F=YES, J=NO","y9umytakqf","2","79","83","75","","","","","","","","","close","mouth1","literal","experimental","f","true","",""
"null","<p style=""font-size: 50px;"">+</p>","null","html-keyboard-response","342","2.1.0","487297","F=YES, J=NO","y9umytakqf","2","79","83","75","","","","","","","","","","","","","","","",""
"null","audio/beep-329314.mp3","null","audio-keyboard-response","343","2.1.0","488836","F=YES, J=NO","y9umytakqf","2","79","83","75","","","","","","","","","","","","","","","",""
"null","audio/budget1.wav","null","audio-keyboard-response","344","2.1.0","489636","F=YES, J=NO","y9umytakqf","2","79","83","75","","","","","","","","","","","","","","","",""
"1150","
          <p id=""word"" style=""font-size: 40px;"">sulist</p>
          <p style=""font-size: 16px;"">F = YES &nbsp;&nbsp;&nbsp; J = NO</p>
        ","j","html-keyboard-response","345","2.1.0","490787","F=YES, J=NO","y9umytakqf","2","79","83","75","","","","","","","","","sulist","budget1","pseudoword","pseudoword","j","true","",""
"null","<p style=""font-size: 50px;"">+</p>","null","html-keyboard-response","346","2.1.0","491091","F=YES, J=NO","y9umytakqf","2","79","83","75","","","","","","","","","","","","","","","",""
"null","audio/beep-329314.mp3","null","audio-keyboard-response","347","2.1.0","492618","F=YES, J=NO","y9umytakqf","2","79","83","75","","","","","","","","","","","","","","","",""
"null","audio/birth1.wav","null","audio-keyboard-response","348","2.1.0","493178","F=YES, J=NO","y9umytakqf","2","79","83","75","","","","","","","","","","","","","","","",""
"660","
          <p id=""word"" style=""font-size: 40px;"">peel</p>
          <p style=""font-size: 16px;"">F = YES &nbsp;&nbsp;&nbsp; J = NO</p>
        ","f","html-keyboard-response","349","2.1.0","493840","F=YES, J=NO","y9umytakqf","2","79","83","75","","","","","","","","","peel","birth1","filler","filler","f","true","",""
"null","<p style=""font-size: 50px;"">+</p>","null","html-keyboard-response","350","2.1.0","494154","F=YES, J=NO","y9umytakqf","2","79","83","75","","","","","","","","","","","","","","","",""
"null","audio/beep-329314.mp3","null","audio-keyboard-response","351","2.1.0","495677","F=YES, J=NO","y9umytakqf","2","79","83","75","","","","","","","","","","","","","","","",""
"null","audio/uncle1.wav","null","audio-keyboard-response","352","2.1.0","496157","F=YES, J=NO","y9umytakqf","2","79","83","75","","","","","","","","","","","","","","","",""
"545","
          <p id=""word"" style=""font-size: 40px;"">break</p>
          <p style=""font-size: 16px;"">F = YES &nbsp;&nbsp;&nbsp; J = NO</p>
        ","f","html-keyboard-response","353","2.1.0","496703","F=YES, J=NO","y9umytakqf","2","79","83","75","","","","","","","","","break","uncle1","unrelated","experimental","f","true","",""
"null","<p style=""font-size: 50px;"">+</p>","null","html-keyboard-response","354","2.1.0","497009","F=YES, J=NO","y9umytakqf","2","79","83","75","","","","","","","","","","","","","","","",""
"null","audio/beep-329314.mp3","null","audio-keyboard-response","355","2.1.0","498537","F=YES, J=NO","y9umytakqf","2","79","83","75","","","","","","","","","","","","","","","",""
"null","audio/planet1.wav","null","audio-keyboard-response","356","2.1.0","499117","F=YES, J=NO","y9umytakqf","2","79","83","75","","","","","","","","","","","","","","","",""
"766","
          <p id=""word"" style=""font-size: 40px;"">save</p>
          <p style=""font-size: 16px;"">F = YES &nbsp;&nbsp;&nbsp; J = NO</p>
        ","f","html-keyboard-response","357","2.1.0","499884","F=YES, J=NO","y9umytakqf","2","79","83","75","","","","","","","","","save","planet1","metaphor","experimental","f","true","",""
"null","<p style=""font-size: 50px;"">+</p>","null","html-keyboard-response","358","2.1.0","500200","F=YES, J=NO","y9umytakqf","2","79","83","75","","","","","","","","","","","","","","","",""
"null","audio/beep-329314.mp3","null","audio-keyboard-response","359","2.1.0","501736","F=YES, J=NO","y9umytakqf","2","79","83","75","","","","","","","","","","","","","","","",""
"null","audio/weight1.wav","null","audio-keyboard-response","360","2.1.0","502276","F=YES, J=NO","y9umytakqf","2","79","83","75","","","","","","","","","","","","","","","",""
"535","
          <p id=""word"" style=""font-size: 40px;"">support</p>
          <p style=""font-size: 16px;"">F = YES &nbsp;&nbsp;&nbsp; J = NO</p>
        ","f","html-keyboard-response","361","2.1.0","502812","F=YES, J=NO","y9umytakqf","2","79","83","75","","","","","","","","","support","weight1","literal","experimental","f","true","",""
"1155","<p>Excellent! You have finished block 3 of 8.</p>
                     <p>Feel free to take a 30 second break.</p>
                     <p>Press any key when you're ready to continue.</p>"," ","html-keyboard-response","362","2.1.0","503969","F=YES, J=NO","y9umytakqf","2","79","83","75","","","","","","","","","","","","","","","",""
"579","<p>Starting main block 4 of 8. Press any key to continue.</p>"," ","html-keyboard-response","363","2.1.0","504548","F=YES, J=NO","y9umytakqf","2","79","83","75","","","","","","","","","","","","","","","",""
"null","<p style=""font-size: 50px;"">+</p>","null","html-keyboard-response","364","2.1.0","504857","F=YES, J=NO","y9umytakqf","2","79","83","75","","","","","","","","","","","","","","","",""
"null","audio/beep-329314.mp3","null","audio-keyboard-response","365","2.1.0","506397","F=YES, J=NO","y9umytakqf","2","79","83","75","","","","","","","","","","","","","","","",""
"null","audio/ankle1.wav","null","audio-keyboard-response","366","2.1.0","506917","F=YES, J=NO","y9umytakqf","2","79","83","75","","","","","","","","","","","","","","","",""
"573","
          <p id=""word"" style=""font-size: 40px;"">kick</p>
          <p style=""font-size: 16px;"">F = YES &nbsp;&nbsp;&nbsp; J = NO</p>
        ","f","html-keyboard-response","367","2.1.0","507491","F=YES, J=NO","y9umytakqf","2","79","83","75","","","","","","","","","kick","ankle1","filler","filler","f","true","",""
"null","<p style=""font-size: 50px;"">+</p>","null","html-keyboard-response","368","2.1.0","507802","F=YES, J=NO","y9umytakqf","2","79","83","75","","","","","","","","","","","","","","","",""
"null","audio/beep-329314.mp3","null","audio-keyboard-response","369","2.1.0","509336","F=YES, J=NO","y9umytakqf","2","79","83","75","","","","","","","","","","","","","","","",""
"null","audio/gold1.wav","null","audio-keyboard-response","370","2.1.0","509897","F=YES, J=NO","y9umytakqf","2","79","83","75","","","","","","","","","","","","","","","",""
"488","
          <p id=""word"" style=""font-size: 40px;"">sell</p>
          <p style=""font-size: 16px;"">F = YES &nbsp;&nbsp;&nbsp; J = NO</p>
        ","f","html-keyboard-response","371","2.1.0","510387","F=YES, J=NO","y9umytakqf","2","79","83","75","","","","","","","","","sell","gold1","literal","experimental","f","true","",""
"null","<p style=""font-size: 50px;"">+</p>","null","html-keyboard-response","372","2.1.0","510693","F=YES, J=NO","y9umytakqf","2","79","83","75","","","","","","","","","","","","","","","",""
"null","audio/beep-329314.mp3","null","audio-keyboard-response","373","2.1.0","512218","F=YES, J=NO","y9umytakqf","2","79","83","75","","","","","","","","","","","","","","","",""
"null","audio/cash1.wav","null","audio-keyboard-response","374","2.1.0","513036","F=YES, J=NO","y9umytakqf","2","79","83","75","","","","","","","","","","","","","","","",""
"493","
          <p id=""word"" style=""font-size: 40px;"">invest</p>
          <p style=""font-size: 16px;"">F = YES &nbsp;&nbsp;&nbsp; J = NO</p>
        ","f","html-keyboard-response","375","2.1.0","513530","F=YES, J=NO","y9umytakqf","2","79","83","75","","","","","","","","","invest","cash1","literal","experimental","f","true","",""
"null","<p style=""font-size: 50px;"">+</p>","null","html-keyboard-response","376","2.1.0","513842","F=YES, J=NO","y9umytakqf","2","79","83","75","","","","","","","","","","","","","","","",""
"null","audio/beep-329314.mp3","null","audio-keyboard-response","377","2.1.0","515377","F=YES, J=NO","y9umytakqf","2","79","83","75","","","","","","","","","","","","","","","",""
"null","audio/theory1.wav","null","audio-keyboard-response","378","2.1.0","516017","F=YES, J=NO","y9umytakqf","2","79","83","75","","","","","","","","","","","","","","","",""
"null","
          <p id=""word"" style=""font-size: 40px;"">scolve</p>
          <p style=""font-size: 16px;"">F = YES &nbsp;&nbsp;&nbsp; J = NO</p>
        ","null","html-keyboard-response","379","2.1.0","517524","F=YES, J=NO","y9umytakqf","2","79","83","75","","","","","","","","","scolve","theory1","pseudoword","pseudoword","j","false","",""
"null","<p style=""font-size: 50px;"">+</p>","null","html-keyboard-response","380","2.1.0","517832","F=YES, J=NO","y9umytakqf","2","79","83","75","","","","","","","","","","","","","","","",""
"null","audio/beep-329314.mp3","null","audio-keyboard-response","381","2.1.0","519357","F=YES, J=NO","y9umytakqf","2","79","83","75","","","","","","","","","","","","","","","",""
"null","audio/smirk1.wav","null","audio-keyboard-response","382","2.1.0","520277","F=YES, J=NO","y9umytakqf","2","79","83","75","","","","","","","","","","","","","","","",""
"614","
          <p id=""word"" style=""font-size: 40px;"">snopt</p>
          <p style=""font-size: 16px;"">F = YES &nbsp;&nbsp;&nbsp; J = NO</p>
        ","j","html-keyboard-response","383","2.1.0","520892","F=YES, J=NO","y9umytakqf","2","79","83","75","","","","","","","","","snopt","smirk1","pseudoword","pseudoword","j","true","",""
"null","<p style=""font-size: 50px;"">+</p>","null","html-keyboard-response","384","2.1.0","521204","F=YES, J=NO","y9umytakqf","2","79","83","75","","","","","","","","","","","","","","","",""
"null","audio/beep-329314.mp3","null","audio-keyboard-response","385","2.1.0","522736","F=YES, J=NO","y9umytakqf","2","79","83","75","","","","","","","","","","","","","","","",""
"null","audio/mind.wav","null","audio-keyboard-response","386","2.1.0","523497","F=YES, J=NO","y9umytakqf","2","79","83","75","","","","","","","","","","","","","","","",""
"573","
          <p id=""word"" style=""font-size: 40px;"">clear</p>
          <p style=""font-size: 16px;"">F = YES &nbsp;&nbsp;&nbsp; J = NO</p>
        ","f","html-keyboard-response","387","2.1.0","524071","F=YES, J=NO","y9umytakqf","2","79","83","75","","","","","","","","","clear","mind","metaphor","experimental","f","true","",""
"null","<p style=""font-size: 50px;"">+</p>","null","html-keyboard-response","388","2.1.0","524375","F=YES, J=NO","y9umytakqf","2","79","83","75","","","","","","","","","","","","","","","",""
"null","audio/beep-329314.mp3","null","audio-keyboard-response","389","2.1.0","525916","F=YES, J=NO","y9umytakqf","2","79","83","75","","","","","","","","","","","","","","","",""
"null","audio/burden.wav","null","audio-keyboard-response","390","2.1.0","526497","F=YES, J=NO","y9umytakqf","2","79","83","75","","","","","","","","","","","","","","","",""
"602","
          <p id=""word"" style=""font-size: 40px;"">whotth</p>
          <p style=""font-size: 16px;"">F = YES &nbsp;&nbsp;&nbsp; J = NO</p>
        ","j","html-keyboard-response","391","2.1.0","527100","F=YES, J=NO","y9umytakqf","2","79","83","75","","","","","","","","","whotth","burden","pseudoword","pseudoword","j","true","",""
