"rt","stimulus","response","trial_type","trial_index","plugin_version","time_elapsed","response_mapping","subject_id","list_index","lextale_score","lextale_word_score","lextale_nonword_score","success","timeout","failed_images","failed_audio","failed_video","task","isWord","isDummy","target","prime","prime_type","stimulus_type","correct_response","correct","section","question_order"
"10431","
    <div style=""max-width: 800px; margin: auto; text-align: left;"">
      <h2>STANFORD UNIVERSITY</h2>
      <h3>Research Information Sheet</h3>
      <p><strong>Protocol Director:</strong> Robert Hawkins<br>
      <strong>Protocol Title:</strong> Communication and social cognition in natural audiovisual contexts<br>
      <strong>IRB#:</strong> 77226</p>

      <p><strong>DESCRIPTION:</strong> You are invited to participate in a research study about language and communication. The purpose of the research is to understand how you interact and communicate with other people in naturalistic settings as a fluent English speaker. This research will be conducted through the Prolific platform, including participants from the US, UK, and Canada. If you decide to participate in this research, you will play a communication game in a group with one or more partners.</p>

      <p><strong>TIME INVOLVEMENT:</strong> The task will last the amount of time advertised on Prolific. You are free to withdraw from the study at any time.</p>

      <p><strong>RISKS AND BENEFITS:</strong> You may become frustrated if your partner gets distracted, or experience discomfort if other participants in your group send text that is inappropriate for the task. We ask you to please be respectful of other participants you might be interacting with to mitigate these risks. You may also experience discomfort when being asked to discuss or challenge emotionally salient political beliefs. Study data will be stored securely, in compliance with Stanford University standards, minimizing the risk of confidentiality breach. This study advances our scientific understanding of how people communicate and collaborate in naturalistic settings. This study may lead to further insights about what can go wrong in teamwork, suggest potential interventions to overcome these barriers, and help to develop assistive technologies that collaborate with human partners. We cannot and do not guarantee or promise that you will receive any benefits from this study.</p>

      <p><strong>PAYMENTS:</strong> You will receive payment in the amount advertised on Prolific. If you do not complete this study, you will receive prorated payment based on the time that you have spent. Additionally, you may be eligible for bonus payments as described in the instructions.</p>

      <p><strong>PARTICIPANT’S RIGHTS:</strong> If you have read this form and have decided to participate in this project, please understand your participation is voluntary and you have the right to withdraw your consent or discontinue participation at any time without penalty or loss of benefits to which you are otherwise entitled. The alternative is not to participate. You have the right to refuse to answer particular questions. The results of this research study may be presented at scientific or professional meetings or published in scientific journals. Your individual privacy will be maintained in all published and written data resulting from the study. In accordance with scientific norms, the data from this study may be used or shared with other researchers for future research (after removing personally identifying information) without additional consent from you.</p>

      <p><strong>CONTACT INFORMATION:</strong><br>
      Questions: If you have any questions, concerns or complaints about this research, its procedures, risks and benefits, contact the Protocol Director, Robert Hawkins (<a href=""mailto:rdhawkins@stanford.edu"">rdhawkins@stanford.edu</a>, 217-549-6923).<br>
      Independent Contact: If you are not satisfied with how this study is being conducted, or if you have any concerns, complaints, or general questions about the research or your rights as a participant, please contact the Stanford Institutional Review Board (IRB) to speak to someone independent of the research team at 650-723-2480 or toll free at 1-866-680-2906, or email at <a href=""mailto:irbnon-med@stanford.edu"">irbnon-med@stanford.edu</a>. You can also write to the Stanford IRB, Stanford University, 1705 El Camino Real, Palo Alto, CA 94306.</p>

      <p><strong>Please save or print a copy of this page for your records.</strong></p>
      <p>If you agree to participate in this research, click ""Continue"" below.</p>
    </div>
  ","0","html-button-response","0","2.1.0","10438","J=YES, F=NO","ysxomohya9","2","70","65","75","","","","","","","","","","","","","","","",""
"10243","
    <div style=""max-width: 800px; margin: auto; text-align: left;"">
      <h2>Welcome!</h2>
      <p>Thank you for participating in this study. The experiment consists of three parts:</p>
      <ol>
        <li>An English vocabulary test</li>
        <li>A main task in which you will hear and see words, and decide whether the written word is a real English word</li>
        <li>A brief survey about your background</li>
      </ol>
      <p>Each part will be introduced before it begins.</p>
      <p>Please make sure you are in a quiet environment and can hear audio clearly for the final task.</p>
      <p style=""margin-top: 2em;"">Press any key to begin.</p>
    </div>
  "," ","html-keyboard-response","1","2.1.0","20683","J=YES, F=NO","ysxomohya9","2","70","65","75","","","","","","","","","","","","","","","",""
"","","","preload","2","2.1.0","23693","J=YES, F=NO","ysxomohya9","2","70","65","75","true","false","[]","[]","[]","","","","","","","","","","",""
"6987","
    <div style=""max-width: 800px; margin: auto; text-align: left;"">
      <h2>Part 1: Vocabulary Test</h2>
      <p>You will now complete the first part of the study: a short English vocabulary test.</p>
      <p>This test is called <strong>LexTALE</strong> and helps us get a general sense of your English proficiency.</p>
      <p style=""margin-top: 2em;"">Press any key to continue.</p>
    </div>
  "," ","html-keyboard-response","3","2.1.0","30681","J=YES, F=NO","ysxomohya9","2","70","65","75","","","","","","","","","","","","","","","",""
"16896","
    <div style=""max-width: 800px; margin: auto; text-align: left;"">
      <h2>LexTALE Vocabulary Test</h2>
      <p>In this test, you will see a series of letter strings—one at a time.</p>
      <p>Your task is to decide whether each string is a real English word.</p>
      <p><strong>Key responses:</strong></p>
      <ul>
        <li><strong>J</strong> = YES (real English word)</li>
        <li><strong>F</strong> = NO (not a real English word)</li>
      </ul>
      <p>There is no time limit, but please try to be accurate.</p>
      <p style=""margin-top: 2em;"">Press any key to begin.</p>
    </div>
  "," ","html-keyboard-response","4","2.1.0","47578","J=YES, F=NO","ysxomohya9","2","70","65","75","","","","","","","","","","","","","","","",""
"3344","
  <p style=""font-size: 40px;"">platery</p>
  <p style=""font-size: 16px;"">J = YES &nbsp;&nbsp;&nbsp; F = NO</p>
","j","html-keyboard-response","5","2.1.0","50922","J=YES, F=NO","ysxomohya9","2","70","65","75","","","","","","lextale","false","true","","","","","","","",""
"1839","
  <p style=""font-size: 40px;"">denial</p>
  <p style=""font-size: 16px;"">J = YES &nbsp;&nbsp;&nbsp; F = NO</p>
","j","html-keyboard-response","6","2.1.0","52762","J=YES, F=NO","ysxomohya9","2","70","65","75","","","","","","lextale","true","true","","","","","","","",""
"1419","
  <p style=""font-size: 40px;"">marrit</p>
  <p style=""font-size: 16px;"">J = YES &nbsp;&nbsp;&nbsp; F = NO</p>
","f","html-keyboard-response","7","2.1.0","54182","J=YES, F=NO","ysxomohya9","2","70","65","75","","","","","","lextale","false","true","","","","","","","",""
"2316","
  <p style=""font-size: 40px;"">bottle</p>
  <p style=""font-size: 16px;"">J = YES &nbsp;&nbsp;&nbsp; F = NO</p>
","j","html-keyboard-response","8","2.1.0","56498","J=YES, F=NO","ysxomohya9","2","70","65","75","","","","","","lextale","true","false","","","","","","","",""
"2987","
  <p style=""font-size: 40px;"">birst</p>
  <p style=""font-size: 16px;"">J = YES &nbsp;&nbsp;&nbsp; F = NO</p>
","j","html-keyboard-response","9","2.1.0","59486","J=YES, F=NO","ysxomohya9","2","70","65","75","","","","","","lextale","false","false","","","","","","","",""
"1383","
  <p style=""font-size: 40px;"">envy</p>
  <p style=""font-size: 16px;"">J = YES &nbsp;&nbsp;&nbsp; F = NO</p>
","j","html-keyboard-response","10","2.1.0","60870","J=YES, F=NO","ysxomohya9","2","70","65","75","","","","","","lextale","true","false","","","","","","","",""
"1779","
  <p style=""font-size: 40px;"">brang</p>
  <p style=""font-size: 16px;"">J = YES &nbsp;&nbsp;&nbsp; F = NO</p>
","f","html-keyboard-response","11","2.1.0","62649","J=YES, F=NO","ysxomohya9","2","70","65","75","","","","","","lextale","false","false","","","","","","","",""
"929","
  <p style=""font-size: 40px;"">huge</p>
  <p style=""font-size: 16px;"">J = YES &nbsp;&nbsp;&nbsp; F = NO</p>
","j","html-keyboard-response","12","2.1.0","63579","J=YES, F=NO","ysxomohya9","2","70","65","75","","","","","","lextale","true","false","","","","","","","",""
"982","
  <p style=""font-size: 40px;"">plove</p>
  <p style=""font-size: 16px;"">J = YES &nbsp;&nbsp;&nbsp; F = NO</p>
","f","html-keyboard-response","13","2.1.0","64561","J=YES, F=NO","ysxomohya9","2","70","65","75","","","","","","lextale","false","false","","","","","","","",""
"840","
  <p style=""font-size: 40px;"">border</p>
  <p style=""font-size: 16px;"">J = YES &nbsp;&nbsp;&nbsp; F = NO</p>
","j","html-keyboard-response","14","2.1.0","65402","J=YES, F=NO","ysxomohya9","2","70","65","75","","","","","","lextale","true","false","","","","","","","",""
"964","
  <p style=""font-size: 40px;"">flimsy</p>
  <p style=""font-size: 16px;"">J = YES &nbsp;&nbsp;&nbsp; F = NO</p>
","f","html-keyboard-response","15","2.1.0","66366","J=YES, F=NO","ysxomohya9","2","70","65","75","","","","","","lextale","true","false","","","","","","","",""
"843","
  <p style=""font-size: 40px;"">drain</p>
  <p style=""font-size: 16px;"">J = YES &nbsp;&nbsp;&nbsp; F = NO</p>
","j","html-keyboard-response","16","2.1.0","67210","J=YES, F=NO","ysxomohya9","2","70","65","75","","","","","","lextale","true","false","","","","","","","",""
"2608","
  <p style=""font-size: 40px;"">twindle</p>
  <p style=""font-size: 16px;"">J = YES &nbsp;&nbsp;&nbsp; F = NO</p>
","f","html-keyboard-response","17","2.1.0","69818","J=YES, F=NO","ysxomohya9","2","70","65","75","","","","","","lextale","false","false","","","","","","","",""
"790","
  <p style=""font-size: 40px;"">propose</p>
  <p style=""font-size: 16px;"">J = YES &nbsp;&nbsp;&nbsp; F = NO</p>
","j","html-keyboard-response","18","2.1.0","70609","J=YES, F=NO","ysxomohya9","2","70","65","75","","","","","","lextale","true","false","","","","","","","",""
"1885","
  <p style=""font-size: 40px;"">forlay</p>
  <p style=""font-size: 16px;"">J = YES &nbsp;&nbsp;&nbsp; F = NO</p>
","f","html-keyboard-response","19","2.1.0","72494","J=YES, F=NO","ysxomohya9","2","70","65","75","","","","","","lextale","false","false","","","","","","","",""
"975","
  <p style=""font-size: 40px;"">tenant</p>
  <p style=""font-size: 16px;"">J = YES &nbsp;&nbsp;&nbsp; F = NO</p>
","j","html-keyboard-response","20","2.1.0","73470","J=YES, F=NO","ysxomohya9","2","70","65","75","","","","","","lextale","true","false","","","","","","","",""
"1024","
  <p style=""font-size: 40px;"">strain</p>
  <p style=""font-size: 16px;"">J = YES &nbsp;&nbsp;&nbsp; F = NO</p>
","j","html-keyboard-response","21","2.1.0","74494","J=YES, F=NO","ysxomohya9","2","70","65","75","","","","","","lextale","true","false","","","","","","","",""
"1267","
  <p style=""font-size: 40px;"">holster</p>
  <p style=""font-size: 16px;"">J = YES &nbsp;&nbsp;&nbsp; F = NO</p>
","f","html-keyboard-response","22","2.1.0","75762","J=YES, F=NO","ysxomohya9","2","70","65","75","","","","","","lextale","true","false","","","","","","","",""
"1543","
  <p style=""font-size: 40px;"">hinder</p>
  <p style=""font-size: 16px;"">J = YES &nbsp;&nbsp;&nbsp; F = NO</p>
","j","html-keyboard-response","23","2.1.0","77306","J=YES, F=NO","ysxomohya9","2","70","65","75","","","","","","lextale","true","false","","","","","","","",""
"1384","
  <p style=""font-size: 40px;"">swindle</p>
  <p style=""font-size: 16px;"">J = YES &nbsp;&nbsp;&nbsp; F = NO</p>
","f","html-keyboard-response","24","2.1.0","78690","J=YES, F=NO","ysxomohya9","2","70","65","75","","","","","","lextale","true","false","","","","","","","",""
"1792","
  <p style=""font-size: 40px;"">nuder</p>
  <p style=""font-size: 16px;"">J = YES &nbsp;&nbsp;&nbsp; F = NO</p>
","f","html-keyboard-response","25","2.1.0","80482","J=YES, F=NO","ysxomohya9","2","70","65","75","","","","","","lextale","false","false","","","","","","","",""
"747","
  <p style=""font-size: 40px;"">pillow</p>
  <p style=""font-size: 16px;"">J = YES &nbsp;&nbsp;&nbsp; F = NO</p>
","j","html-keyboard-response","26","2.1.0","81229","J=YES, F=NO","ysxomohya9","2","70","65","75","","","","","","lextale","true","false","","","","","","","",""
"3067","
  <p style=""font-size: 40px;"">shumble</p>
  <p style=""font-size: 16px;"">J = YES &nbsp;&nbsp;&nbsp; F = NO</p>
","f","html-keyboard-response","27","2.1.0","84297","J=YES, F=NO","ysxomohya9","2","70","65","75","","","","","","lextale","false","false","","","","","","","",""
"1067","
  <p style=""font-size: 40px;"">thirst</p>
  <p style=""font-size: 16px;"">J = YES &nbsp;&nbsp;&nbsp; F = NO</p>
","j","html-keyboard-response","28","2.1.0","85365","J=YES, F=NO","ysxomohya9","2","70","65","75","","","","","","lextale","true","false","","","","","","","",""
"1279","
  <p style=""font-size: 40px;"">unsail</p>
  <p style=""font-size: 16px;"">J = YES &nbsp;&nbsp;&nbsp; F = NO</p>
","j","html-keyboard-response","29","2.1.0","86645","J=YES, F=NO","ysxomohya9","2","70","65","75","","","","","","lextale","false","false","","","","","","","",""
"892","
  <p style=""font-size: 40px;"">rifle</p>
  <p style=""font-size: 16px;"">J = YES &nbsp;&nbsp;&nbsp; F = NO</p>
","j","html-keyboard-response","30","2.1.0","87537","J=YES, F=NO","ysxomohya9","2","70","65","75","","","","","","lextale","true","false","","","","","","","",""
"2823","
  <p style=""font-size: 40px;"">mush</p>
  <p style=""font-size: 16px;"">J = YES &nbsp;&nbsp;&nbsp; F = NO</p>
","f","html-keyboard-response","31","2.1.0","90361","J=YES, F=NO","ysxomohya9","2","70","65","75","","","","","","lextale","false","false","","","","","","","",""
"1448","
  <p style=""font-size: 40px;"">drench</p>
  <p style=""font-size: 16px;"">J = YES &nbsp;&nbsp;&nbsp; F = NO</p>
","f","html-keyboard-response","32","2.1.0","91809","J=YES, F=NO","ysxomohya9","2","70","65","75","","","","","","lextale","true","false","","","","","","","",""
"1023","
  <p style=""font-size: 40px;"">snirt</p>
  <p style=""font-size: 16px;"">J = YES &nbsp;&nbsp;&nbsp; F = NO</p>
","f","html-keyboard-response","33","2.1.0","92833","J=YES, F=NO","ysxomohya9","2","70","65","75","","","","","","lextale","false","false","","","","","","","",""
"767","
  <p style=""font-size: 40px;"">bitter</p>
  <p style=""font-size: 16px;"">J = YES &nbsp;&nbsp;&nbsp; F = NO</p>
","j","html-keyboard-response","34","2.1.0","93601","J=YES, F=NO","ysxomohya9","2","70","65","75","","","","","","lextale","true","false","","","","","","","",""
"1039","
  <p style=""font-size: 40px;"">pliff</p>
  <p style=""font-size: 16px;"">J = YES &nbsp;&nbsp;&nbsp; F = NO</p>
","f","html-keyboard-response","35","2.1.0","94641","J=YES, F=NO","ysxomohya9","2","70","65","75","","","","","","lextale","false","false","","","","","","","",""
"584","
  <p style=""font-size: 40px;"">tablet</p>
  <p style=""font-size: 16px;"">J = YES &nbsp;&nbsp;&nbsp; F = NO</p>
","j","html-keyboard-response","36","2.1.0","95225","J=YES, F=NO","ysxomohya9","2","70","65","75","","","","","","lextale","true","false","","","","","","","",""
"1408","
  <p style=""font-size: 40px;"">glimmer</p>
  <p style=""font-size: 16px;"">J = YES &nbsp;&nbsp;&nbsp; F = NO</p>
","j","html-keyboard-response","37","2.1.0","96634","J=YES, F=NO","ysxomohya9","2","70","65","75","","","","","","lextale","true","false","","","","","","","",""
"2256","
  <p style=""font-size: 40px;"">slink</p>
  <p style=""font-size: 16px;"">J = YES &nbsp;&nbsp;&nbsp; F = NO</p>
","f","html-keyboard-response","38","2.1.0","98890","J=YES, F=NO","ysxomohya9","2","70","65","75","","","","","","lextale","true","false","","","","","","","",""
"704","
  <p style=""font-size: 40px;"">clever</p>
  <p style=""font-size: 16px;"">J = YES &nbsp;&nbsp;&nbsp; F = NO</p>
","j","html-keyboard-response","39","2.1.0","99594","J=YES, F=NO","ysxomohya9","2","70","65","75","","","","","","lextale","true","false","","","","","","","",""
"1240","
  <p style=""font-size: 40px;"">grum</p>
  <p style=""font-size: 16px;"">J = YES &nbsp;&nbsp;&nbsp; F = NO</p>
","j","html-keyboard-response","40","2.1.0","100834","J=YES, F=NO","ysxomohya9","2","70","65","75","","","","","","lextale","false","false","","","","","","","",""
"1604","
  <p style=""font-size: 40px;"">string</p>
  <p style=""font-size: 16px;"">J = YES &nbsp;&nbsp;&nbsp; F = NO</p>
","j","html-keyboard-response","41","2.1.0","102438","J=YES, F=NO","ysxomohya9","2","70","65","75","","","","","","lextale","true","false","","","","","","","",""
"896","
  <p style=""font-size: 40px;"">plim</p>
  <p style=""font-size: 16px;"">J = YES &nbsp;&nbsp;&nbsp; F = NO</p>
","f","html-keyboard-response","42","2.1.0","103334","J=YES, F=NO","ysxomohya9","2","70","65","75","","","","","","lextale","false","false","","","","","","","",""
"623","
  <p style=""font-size: 40px;"">cable</p>
  <p style=""font-size: 16px;"">J = YES &nbsp;&nbsp;&nbsp; F = NO</p>
","j","html-keyboard-response","43","2.1.0","103958","J=YES, F=NO","ysxomohya9","2","70","65","75","","","","","","lextale","true","false","","","","","","","",""
"1580","
  <p style=""font-size: 40px;"">shrivel</p>
  <p style=""font-size: 16px;"">J = YES &nbsp;&nbsp;&nbsp; F = NO</p>
","f","html-keyboard-response","44","2.1.0","105538","J=YES, F=NO","ysxomohya9","2","70","65","75","","","","","","lextale","true","false","","","","","","","",""
"3112","
  <p style=""font-size: 40px;"">tarnish</p>
  <p style=""font-size: 16px;"">J = YES &nbsp;&nbsp;&nbsp; F = NO</p>
","j","html-keyboard-response","45","2.1.0","108650","J=YES, F=NO","ysxomohya9","2","70","65","75","","","","","","lextale","true","false","","","","","","","",""
"1223","
  <p style=""font-size: 40px;"">blim</p>
  <p style=""font-size: 16px;"">J = YES &nbsp;&nbsp;&nbsp; F = NO</p>
","f","html-keyboard-response","46","2.1.0","109874","J=YES, F=NO","ysxomohya9","2","70","65","75","","","","","","lextale","false","false","","","","","","","",""
"1736","
  <p style=""font-size: 40px;"">stifle</p>
  <p style=""font-size: 16px;"">J = YES &nbsp;&nbsp;&nbsp; F = NO</p>
","f","html-keyboard-response","47","2.1.0","111610","J=YES, F=NO","ysxomohya9","2","70","65","75","","","","","","lextale","true","false","","","","","","","",""
"1040","
  <p style=""font-size: 40px;"">bint</p>
  <p style=""font-size: 16px;"">J = YES &nbsp;&nbsp;&nbsp; F = NO</p>
","f","html-keyboard-response","48","2.1.0","112650","J=YES, F=NO","ysxomohya9","2","70","65","75","","","","","","lextale","false","false","","","","","","","",""
"607","
  <p style=""font-size: 40px;"">purple</p>
  <p style=""font-size: 16px;"">J = YES &nbsp;&nbsp;&nbsp; F = NO</p>
","j","html-keyboard-response","49","2.1.0","113258","J=YES, F=NO","ysxomohya9","2","70","65","75","","","","","","lextale","true","false","","","","","","","",""
"1156","
  <p style=""font-size: 40px;"">wriggle</p>
  <p style=""font-size: 16px;"">J = YES &nbsp;&nbsp;&nbsp; F = NO</p>
","j","html-keyboard-response","50","2.1.0","114414","J=YES, F=NO","ysxomohya9","2","70","65","75","","","","","","lextale","true","false","","","","","","","",""
"2355","
  <p style=""font-size: 40px;"">mangle</p>
  <p style=""font-size: 16px;"">J = YES &nbsp;&nbsp;&nbsp; F = NO</p>
","f","html-keyboard-response","51","2.1.0","116770","J=YES, F=NO","ysxomohya9","2","70","65","75","","","","","","lextale","true","false","","","","","","","",""
"816","
  <p style=""font-size: 40px;"">shramp</p>
  <p style=""font-size: 16px;"">J = YES &nbsp;&nbsp;&nbsp; F = NO</p>
","j","html-keyboard-response","52","2.1.0","117586","J=YES, F=NO","ysxomohya9","2","70","65","75","","","","","","lextale","false","false","","","","","","","",""
"1344","
  <p style=""font-size: 40px;"">flirt</p>
  <p style=""font-size: 16px;"">J = YES &nbsp;&nbsp;&nbsp; F = NO</p>
","j","html-keyboard-response","53","2.1.0","118930","J=YES, F=NO","ysxomohya9","2","70","65","75","","","","","","lextale","true","false","","","","","","","",""
"1027","
  <p style=""font-size: 40px;"">frip</p>
  <p style=""font-size: 16px;"">J = YES &nbsp;&nbsp;&nbsp; F = NO</p>
","f","html-keyboard-response","54","2.1.0","119958","J=YES, F=NO","ysxomohya9","2","70","65","75","","","","","","lextale","false","false","","","","","","","",""
"1083","
  <p style=""font-size: 40px;"">tangle</p>
  <p style=""font-size: 16px;"">J = YES &nbsp;&nbsp;&nbsp; F = NO</p>
","j","html-keyboard-response","55","2.1.0","121042","J=YES, F=NO","ysxomohya9","2","70","65","75","","","","","","lextale","true","false","","","","","","","",""
"1064","
  <p style=""font-size: 40px;"">crumble</p>
  <p style=""font-size: 16px;"">J = YES &nbsp;&nbsp;&nbsp; F = NO</p>
","j","html-keyboard-response","56","2.1.0","122106","J=YES, F=NO","ysxomohya9","2","70","65","75","","","","","","lextale","true","false","","","","","","","",""
"896","
  <p style=""font-size: 40px;"">wrinkle</p>
  <p style=""font-size: 16px;"">J = YES &nbsp;&nbsp;&nbsp; F = NO</p>
","j","html-keyboard-response","57","2.1.0","123002","J=YES, F=NO","ysxomohya9","2","70","65","75","","","","","","lextale","true","false","","","","","","","",""
"868","
  <p style=""font-size: 40px;"">slumb</p>
  <p style=""font-size: 16px;"">J = YES &nbsp;&nbsp;&nbsp; F = NO</p>
","f","html-keyboard-response","58","2.1.0","123870","J=YES, F=NO","ysxomohya9","2","70","65","75","","","","","","lextale","false","false","","","","","","","",""
"687","
  <p style=""font-size: 40px;"">jungle</p>
  <p style=""font-size: 16px;"">J = YES &nbsp;&nbsp;&nbsp; F = NO</p>
","j","html-keyboard-response","59","2.1.0","124558","J=YES, F=NO","ysxomohya9","2","70","65","75","","","","","","lextale","true","false","","","","","","","",""
"1400","
  <p style=""font-size: 40px;"">frolick</p>
  <p style=""font-size: 16px;"">J = YES &nbsp;&nbsp;&nbsp; F = NO</p>
","f","html-keyboard-response","60","2.1.0","125958","J=YES, F=NO","ysxomohya9","2","70","65","75","","","","","","lextale","false","false","","","","","","","",""
"3067","
      <h2>LexTALE Test Completed</h2>
      <p>Your LexTALE vocabulary score is: <strong>70%</strong></p>
      <p>Press any key to continue.</p>
    "," ","html-keyboard-response","61","2.1.0","129026","J=YES, F=NO","ysxomohya9","2","70","65","75","","","","","","","","","","","","","","","",""
"7356","
    <div style=""max-width: 800px; margin: auto; text-align: left;"">
      <h2>Break Time</h2>
      <p>You have completed the first part of the study.</p>
      <p>You may take a short <strong>30-second break</strong> before continuing.</p>
      <p>When you’re ready, press any key to continue to the final task.</p>
    </div>
  "," ","html-keyboard-response","62","2.1.0","136382","J=YES, F=NO","ysxomohya9","2","70","65","75","","","","","","","","","","","","","","","",""
"30488","
    <div style=""max-width: 800px; margin: auto; text-align: left;"">
      <h2>Part 2: Lexical Decision Task</h2>
      <p>You will now begin the second part of the study.</p>
      <p>Each trial will follow this sequence:</p>
      <ul>
        <li>A fixation cross (+) appears at the center of the screen.</li>
        <li>You will hear a short beep followed by a spoken word.</li>
        <li>A written word will appear briefly on the screen.</li>
      </ul>
      <p>Your task is to judge whether the <strong>written word</strong> is a real English word.</p>
      <p style=""margin-top: 1em;""><strong>Key responses:</strong></p>
      <ul>
        <li><strong>J</strong> = YES (real English word)</li>
        <li><strong>F</strong> = NO (not a real English word)</li>
      </ul>
      <p>Please respond as quickly and accurately as you can.</p>
      <p style=""margin-top: 2em;"">Press any key to continue.</p>
    </div>
  "," ","html-keyboard-response","63","2.1.0","166870","J=YES, F=NO","ysxomohya9","2","70","65","75","","","","","","","","","","","","","","","",""
"12043","
    <div style=""max-width: 800px; margin: auto; text-align: left;"">
      <h2>Before You Begin</h2>
      <p>Make sure your sound is turned on.</p>
      <p>You will hear audio during each trial, but your decision should be based only on the <strong>written word</strong> you see on the screen.</p>
      <p><strong>Reminder:</strong></p>
      <ul>
        <li><strong>J</strong> = YES (real English word)</li>
        <li><strong>F</strong> = NO (not a real English word)</li>
      </ul>
      <p style=""margin-top: 2em;"">Press any key when you are ready to begin.</p>
    </div>
  "," ","html-keyboard-response","64","2.1.0","178914","J=YES, F=NO","ysxomohya9","2","70","65","75","","","","","","","","","","","","","","","",""
"4587","
    <div style=""max-width: 800px; margin: auto; text-align: left;"">
      <h2>Part 2: Practice Trials</h2>
      <p>You will now complete a few <strong>practice trials</strong> to get familiar with the task.</p>
      <p>These trials are <strong>not scored</strong> and are only to help you get used to the format.</p>
      <p style=""margin-top: 2em;"">Press any key to begin.</p>
    </div>
  "," ","html-keyboard-response","65","2.1.0","183502","J=YES, F=NO","ysxomohya9","2","70","65","75","","","","","","","","","","","","","","","",""
"3564","<p>Starting practice block 1 of 2. Press any key to continue.</p>"," ","html-keyboard-response","66","2.1.0","187066","J=YES, F=NO","ysxomohya9","2","70","65","75","","","","","","","","","","","","","","","",""
"null","<p style=""font-size: 50px;"">+</p>","null","html-keyboard-response","67","2.1.0","187380","J=YES, F=NO","ysxomohya9","2","70","65","75","","","","","","","","","","","","","","","",""
"null","audio/beep-329314.mp3","null","audio-keyboard-response","68","2.1.0","189103","J=YES, F=NO","ysxomohya9","2","70","65","75","","","","","","","","","","","","","","","",""
"null","audio/alarm1.wav","null","audio-keyboard-response","69","2.1.0","189693","J=YES, F=NO","ysxomohya9","2","70","65","75","","","","","","","","","","","","","","","",""
"null","
          <p id=""word"" style=""font-size: 40px;"">lock</p>
          <p style=""font-size: 16px;"">J = YES &nbsp;&nbsp;&nbsp; F = NO</p>
        ","null","html-keyboard-response","70","2.1.0","191205","J=YES, F=NO","ysxomohya9","2","70","65","75","","","","","","","","","lock","alarm1","filler","filler","j","false","",""
"null","<p style=""font-size: 50px;"">+</p>","null","html-keyboard-response","71","2.1.0","191514","J=YES, F=NO","ysxomohya9","2","70","65","75","","","","","","","","","","","","","","","",""
"null","audio/beep-329314.mp3","null","audio-keyboard-response","72","2.1.0","193043","J=YES, F=NO","ysxomohya9","2","70","65","75","","","","","","","","","","","","","","","",""
"null","audio/cancer1.wav","null","audio-keyboard-response","73","2.1.0","193713","J=YES, F=NO","ysxomohya9","2","70","65","75","","","","","","","","","","","","","","","",""
"668","
          <p id=""word"" style=""font-size: 40px;"">draw</p>
          <p style=""font-size: 16px;"">J = YES &nbsp;&nbsp;&nbsp; F = NO</p>
        ","j","html-keyboard-response","74","2.1.0","194382","J=YES, F=NO","ysxomohya9","2","70","65","75","","","","","","","","","draw","cancer1","filler","filler","j","true","",""
"null","<p style=""font-size: 50px;"">+</p>","null","html-keyboard-response","75","2.1.0","194695","J=YES, F=NO","ysxomohya9","2","70","65","75","","","","","","","","","","","","","","","",""
"null","audio/beep-329314.mp3","null","audio-keyboard-response","76","2.1.0","196223","J=YES, F=NO","ysxomohya9","2","70","65","75","","","","","","","","","","","","","","","",""
"null","audio/winter.wav","null","audio-keyboard-response","77","2.1.0","196793","J=YES, F=NO","ysxomohya9","2","70","65","75","","","","","","","","","","","","","","","",""
"1044","
          <p id=""word"" style=""font-size: 40px;"">straven</p>
          <p style=""font-size: 16px;"">J = YES &nbsp;&nbsp;&nbsp; F = NO</p>
        ","f","html-keyboard-response","78","2.1.0","197838","J=YES, F=NO","ysxomohya9","2","70","65","75","","","","","","","","","straven","winter","pseudoword","pseudoword","f","true","",""
"null","<p style=""font-size: 50px;"">+</p>","null","html-keyboard-response","79","2.1.0","198147","J=YES, F=NO","ysxomohya9","2","70","65","75","","","","","","","","","","","","","","","",""
"null","audio/beep-329314.mp3","null","audio-keyboard-response","80","2.1.0","199683","J=YES, F=NO","ysxomohya9","2","70","65","75","","","","","","","","","","","","","","","",""
"null","audio/floor.wav","null","audio-keyboard-response","81","2.1.0","200293","J=YES, F=NO","ysxomohya9","2","70","65","75","","","","","","","","","","","","","","","",""
"1136","
          <p id=""word"" style=""font-size: 40px;"">mop</p>
          <p style=""font-size: 16px;"">J = YES &nbsp;&nbsp;&nbsp; F = NO</p>
        ","j","html-keyboard-response","82","2.1.0","201430","J=YES, F=NO","ysxomohya9","2","70","65","75","","","","","","","","","mop","floor","filler","filler","j","true","",""
"null","<p style=""font-size: 50px;"">+</p>","null","html-keyboard-response","83","2.1.0","201744","J=YES, F=NO","ysxomohya9","2","70","65","75","","","","","","","","","","","","","","","",""
"null","audio/beep-329314.mp3","null","audio-keyboard-response","84","2.1.0","203283","J=YES, F=NO","ysxomohya9","2","70","65","75","","","","","","","","","","","","","","","",""
"null","audio/bottle.wav","null","audio-keyboard-response","85","2.1.0","203813","J=YES, F=NO","ysxomohya9","2","70","65","75","","","","","","","","","","","","","","","",""
"765","
          <p id=""word"" style=""font-size: 40px;"">watch</p>
          <p style=""font-size: 16px;"">J = YES &nbsp;&nbsp;&nbsp; F = NO</p>
        ","j","html-keyboard-response","86","2.1.0","204578","J=YES, F=NO","ysxomohya9","2","70","65","75","","","","","","","","","watch","bottle","filler","filler","j","true","",""
"null","<p style=""font-size: 50px;"">+</p>","null","html-keyboard-response","87","2.1.0","204895","J=YES, F=NO","ysxomohya9","2","70","65","75","","","","","","","","","","","","","","","",""
"null","audio/beep-329314.mp3","null","audio-keyboard-response","88","2.1.0","206423","J=YES, F=NO","ysxomohya9","2","70","65","75","","","","","","","","","","","","","","","",""
"null","audio/corpse1.wav","null","audio-keyboard-response","89","2.1.0","207113","J=YES, F=NO","ysxomohya9","2","70","65","75","","","","","","","","","","","","","","","",""
"752","
          <p id=""word"" style=""font-size: 40px;"">glonet</p>
          <p style=""font-size: 16px;"">J = YES &nbsp;&nbsp;&nbsp; F = NO</p>
        ","f","html-keyboard-response","90","2.1.0","207866","J=YES, F=NO","ysxomohya9","2","70","65","75","","","","","","","","","glonet","corpse1","pseudoword","pseudoword","f","true","",""
"null","<p style=""font-size: 50px;"">+</p>","null","html-keyboard-response","91","2.1.0","208177","J=YES, F=NO","ysxomohya9","2","70","65","75","","","","","","","","","","","","","","","",""
"null","audio/beep-329314.mp3","null","audio-keyboard-response","92","2.1.0","209703","J=YES, F=NO","ysxomohya9","2","70","65","75","","","","","","","","","","","","","","","",""
"null","audio/menu.wav","null","audio-keyboard-response","93","2.1.0","210293","J=YES, F=NO","ysxomohya9","2","70","65","75","","","","","","","","","","","","","","","",""
"856","
          <p id=""word"" style=""font-size: 40px;"">slice</p>
          <p style=""font-size: 16px;"">J = YES &nbsp;&nbsp;&nbsp; F = NO</p>
        ","j","html-keyboard-response","94","2.1.0","211149","J=YES, F=NO","ysxomohya9","2","70","65","75","","","","","","","","","slice","menu","filler","filler","j","true","",""
"null","<p style=""font-size: 50px;"">+</p>","null","html-keyboard-response","95","2.1.0","211459","J=YES, F=NO","ysxomohya9","2","70","65","75","","","","","","","","","","","","","","","",""
"null","audio/beep-329314.mp3","null","audio-keyboard-response","96","2.1.0","212983","J=YES, F=NO","ysxomohya9","2","70","65","75","","","","","","","","","","","","","","","",""
"null","audio/pine.wav","null","audio-keyboard-response","97","2.1.0","213533","J=YES, F=NO","ysxomohya9","2","70","65","75","","","","","","","","","","","","","","","",""
"728","
          <p id=""word"" style=""font-size: 40px;"">crebble</p>
          <p style=""font-size: 16px;"">J = YES &nbsp;&nbsp;&nbsp; F = NO</p>
        ","f","html-keyboard-response","98","2.1.0","214261","J=YES, F=NO","ysxomohya9","2","70","65","75","","","","","","","","","crebble","pine","pseudoword","pseudoword","f","true","",""
"null","<p style=""font-size: 50px;"">+</p>","null","html-keyboard-response","99","2.1.0","214576","J=YES, F=NO","ysxomohya9","2","70","65","75","","","","","","","","","","","","","","","",""
"null","audio/beep-329314.mp3","null","audio-keyboard-response","100","2.1.0","216103","J=YES, F=NO","ysxomohya9","2","70","65","75","","","","","","","","","","","","","","","",""
"null","audio/handle.wav","null","audio-keyboard-response","101","2.1.0","216733","J=YES, F=NO","ysxomohya9","2","70","65","75","","","","","","","","","","","","","","","",""
"709","
          <p id=""word"" style=""font-size: 40px;"">moutes</p>
          <p style=""font-size: 16px;"">J = YES &nbsp;&nbsp;&nbsp; F = NO</p>
        ","f","html-keyboard-response","102","2.1.0","217442","J=YES, F=NO","ysxomohya9","2","70","65","75","","","","","","","","","moutes","handle","pseudoword","pseudoword","f","true","",""
"null","<p style=""font-size: 50px;"">+</p>","null","html-keyboard-response","103","2.1.0","217759","J=YES, F=NO","ysxomohya9","2","70","65","75","","","","","","","","","","","","","","","",""
"null","audio/beep-329314.mp3","null","audio-keyboard-response","104","2.1.0","219283","J=YES, F=NO","ysxomohya9","2","70","65","75","","","","","","","","","","","","","","","",""
"null","audio/fence.wav","null","audio-keyboard-response","105","2.1.0","219993","J=YES, F=NO","ysxomohya9","2","70","65","75","","","","","","","","","","","","","","","",""
"712","
          <p id=""word"" style=""font-size: 40px;"">trim</p>
          <p style=""font-size: 16px;"">J = YES &nbsp;&nbsp;&nbsp; F = NO</p>
        ","j","html-keyboard-response","106","2.1.0","220706","J=YES, F=NO","ysxomohya9","2","70","65","75","","","","","","","","","trim","fence","filler","filler","j","true","",""
"null","<p style=""font-size: 50px;"">+</p>","null","html-keyboard-response","107","2.1.0","221011","J=YES, F=NO","ysxomohya9","2","70","65","75","","","","","","","","","","","","","","","",""
"null","audio/beep-329314.mp3","null","audio-keyboard-response","108","2.1.0","222543","J=YES, F=NO","ysxomohya9","2","70","65","75","","","","","","","","","","","","","","","",""
"null","audio/arm.wav","null","audio-keyboard-response","109","2.1.0","223093","J=YES, F=NO","ysxomohya9","2","70","65","75","","","","","","","","","","","","","","","",""
"540","
          <p id=""word"" style=""font-size: 40px;"">fold</p>
          <p style=""font-size: 16px;"">J = YES &nbsp;&nbsp;&nbsp; F = NO</p>
        ","j","html-keyboard-response","110","2.1.0","223634","J=YES, F=NO","ysxomohya9","2","70","65","75","","","","","","","","","fold","arm","filler","filler","j","true","",""
"null","<p style=""font-size: 50px;"">+</p>","null","html-keyboard-response","111","2.1.0","223943","J=YES, F=NO","ysxomohya9","2","70","65","75","","","","","","","","","","","","","","","",""
"null","audio/beep-329314.mp3","null","audio-keyboard-response","112","2.1.0","225483","J=YES, F=NO","ysxomohya9","2","70","65","75","","","","","","","","","","","","","","","",""
"null","audio/brain.wav","null","audio-keyboard-response","113","2.1.0","226033","J=YES, F=NO","ysxomohya9","2","70","65","75","","","","","","","","","","","","","","","",""
"728","
          <p id=""word"" style=""font-size: 40px;"">throw</p>
          <p style=""font-size: 16px;"">J = YES &nbsp;&nbsp;&nbsp; F = NO</p>
        ","j","html-keyboard-response","114","2.1.0","226761","J=YES, F=NO","ysxomohya9","2","70","65","75","","","","","","","","","throw","brain","filler","filler","j","true","",""
"2312","<p>Starting practice block 2 of 2. Press any key to continue.</p>"," ","html-keyboard-response","115","2.1.0","229074","J=YES, F=NO","ysxomohya9","2","70","65","75","","","","","","","","","","","","","","","",""
"null","<p style=""font-size: 50px;"">+</p>","null","html-keyboard-response","116","2.1.0","229386","J=YES, F=NO","ysxomohya9","2","70","65","75","","","","","","","","","","","","","","","",""
"null","audio/beep-329314.mp3","null","audio-keyboard-response","117","2.1.0","230923","J=YES, F=NO","ysxomohya9","2","70","65","75","","","","","","","","","","","","","","","",""
"null","audio/birth1.wav","null","audio-keyboard-response","118","2.1.0","231653","J=YES, F=NO","ysxomohya9","2","70","65","75","","","","","","","","","","","","","","","",""
"832","
          <p id=""word"" style=""font-size: 40px;"">peel</p>
          <p style=""font-size: 16px;"">J = YES &nbsp;&nbsp;&nbsp; F = NO</p>
        ","j","html-keyboard-response","119","2.1.0","232486","J=YES, F=NO","ysxomohya9","2","70","65","75","","","","","","","","","peel","birth1","filler","filler","j","true","",""
"null","<p style=""font-size: 50px;"">+</p>","null","html-keyboard-response","120","2.1.0","232795","J=YES, F=NO","ysxomohya9","2","70","65","75","","","","","","","","","","","","","","","",""
"null","audio/beep-329314.mp3","null","audio-keyboard-response","121","2.1.0","234324","J=YES, F=NO","ysxomohya9","2","70","65","75","","","","","","","","","","","","","","","",""
"null","audio/belief.wav","null","audio-keyboard-response","122","2.1.0","234953","J=YES, F=NO","ysxomohya9","2","70","65","75","","","","","","","","","","","","","","","",""
"576","
          <p id=""word"" style=""font-size: 40px;"">read</p>
          <p style=""font-size: 16px;"">J = YES &nbsp;&nbsp;&nbsp; F = NO</p>
        ","j","html-keyboard-response","123","2.1.0","235530","J=YES, F=NO","ysxomohya9","2","70","65","75","","","","","","","","","read","belief","filler","filler","j","true","",""
"null","<p style=""font-size: 50px;"">+</p>","null","html-keyboard-response","124","2.1.0","235844","J=YES, F=NO","ysxomohya9","2","70","65","75","","","","","","","","","","","","","","","",""
"null","audio/beep-329314.mp3","null","audio-keyboard-response","125","2.1.0","237383","J=YES, F=NO","ysxomohya9","2","70","65","75","","","","","","","","","","","","","","","",""
"null","audio/haste1.wav","null","audio-keyboard-response","126","2.1.0","238013","J=YES, F=NO","ysxomohya9","2","70","65","75","","","","","","","","","","","","","","","",""
"884","
          <p id=""word"" style=""font-size: 40px;"">coraconate</p>
          <p style=""font-size: 16px;"">J = YES &nbsp;&nbsp;&nbsp; F = NO</p>
        ","f","html-keyboard-response","127","2.1.0","238898","J=YES, F=NO","ysxomohya9","2","70","65","75","","","","","","","","","coraconate","haste1","pseudoword","pseudoword","f","true","",""
"null","<p style=""font-size: 50px;"">+</p>","null","html-keyboard-response","128","2.1.0","239211","J=YES, F=NO","ysxomohya9","2","70","65","75","","","","","","","","","","","","","","","",""
"null","audio/beep-329314.mp3","null","audio-keyboard-response","129","2.1.0","240743","J=YES, F=NO","ysxomohya9","2","70","65","75","","","","","","","","","","","","","","","",""
"null","audio/cinema1.wav","null","audio-keyboard-response","130","2.1.0","241413","J=YES, F=NO","ysxomohya9","2","70","65","75","","","","","","","","","","","","","","","",""
"1001","
          <p id=""word"" style=""font-size: 40px;"">murple</p>
          <p style=""font-size: 16px;"">J = YES &nbsp;&nbsp;&nbsp; F = NO</p>
        ","f","html-keyboard-response","131","2.1.0","242414","J=YES, F=NO","ysxomohya9","2","70","65","75","","","","","","","","","murple","cinema1","pseudoword","pseudoword","f","true","",""
"null","<p style=""font-size: 50px;"">+</p>","null","html-keyboard-response","132","2.1.0","242726","J=YES, F=NO","ysxomohya9","2","70","65","75","","","","","","","","","","","","","","","",""
"null","audio/beep-329314.mp3","null","audio-keyboard-response","133","2.1.0","244263","J=YES, F=NO","ysxomohya9","2","70","65","75","","","","","","","","","","","","","","","",""
"null","audio/prisoner.wav","null","audio-keyboard-response","134","2.1.0","244833","J=YES, F=NO","ysxomohya9","2","70","65","75","","","","","","","","","","","","","","","",""
"1256","
          <p id=""word"" style=""font-size: 40px;"">egotian</p>
          <p style=""font-size: 16px;"">J = YES &nbsp;&nbsp;&nbsp; F = NO</p>
        ","f","html-keyboard-response","135","2.1.0","246090","J=YES, F=NO","ysxomohya9","2","70","65","75","","","","","","","","","egotian","prisoner","pseudoword","pseudoword","f","true","",""
"null","<p style=""font-size: 50px;"">+</p>","null","html-keyboard-response","136","2.1.0","246394","J=YES, F=NO","ysxomohya9","2","70","65","75","","","","","","","","","","","","","","","",""
"null","audio/beep-329314.mp3","null","audio-keyboard-response","137","2.1.0","247923","J=YES, F=NO","ysxomohya9","2","70","65","75","","","","","","","","","","","","","","","",""
"null","audio/novel.wav","null","audio-keyboard-response","138","2.1.0","248413","J=YES, F=NO","ysxomohya9","2","70","65","75","","","","","","","","","","","","","","","",""
"444","
          <p id=""word"" style=""font-size: 40px;"">type</p>
          <p style=""font-size: 16px;"">J = YES &nbsp;&nbsp;&nbsp; F = NO</p>
        ","j","html-keyboard-response","139","2.1.0","248858","J=YES, F=NO","ysxomohya9","2","70","65","75","","","","","","","","","type","novel","filler","filler","j","true","",""
"null","<p style=""font-size: 50px;"">+</p>","null","html-keyboard-response","140","2.1.0","249160","J=YES, F=NO","ysxomohya9","2","70","65","75","","","","","","","","","","","","","","","",""
"null","audio/beep-329314.mp3","null","audio-keyboard-response","141","2.1.0","250683","J=YES, F=NO","ysxomohya9","2","70","65","75","","","","","","","","","","","","","","","",""
"null","audio/dome.wav","null","audio-keyboard-response","142","2.1.0","251113","J=YES, F=NO","ysxomohya9","2","70","65","75","","","","","","","","","","","","","","","",""
"1004","
          <p id=""word"" style=""font-size: 40px;"">scrupliness</p>
          <p style=""font-size: 16px;"">J = YES &nbsp;&nbsp;&nbsp; F = NO</p>
        ","j","html-keyboard-response","143","2.1.0","252118","J=YES, F=NO","ysxomohya9","2","70","65","75","","","","","","","","","scrupliness","dome","pseudoword","pseudoword","f","false","",""
"null","<p style=""font-size: 50px;"">+</p>","null","html-keyboard-response","144","2.1.0","252426","J=YES, F=NO","ysxomohya9","2","70","65","75","","","","","","","","","","","","","","","",""
"null","audio/beep-329314.mp3","null","audio-keyboard-response","145","2.1.0","253963","J=YES, F=NO","ysxomohya9","2","70","65","75","","","","","","","","","","","","","","","",""
"null","audio/baby.wav","null","audio-keyboard-response","146","2.1.0","254433","J=YES, F=NO","ysxomohya9","2","70","65","75","","","","","","","","","","","","","","","",""
"597","
          <p id=""word"" style=""font-size: 40px;"">lift</p>
          <p style=""font-size: 16px;"">J = YES &nbsp;&nbsp;&nbsp; F = NO</p>
        ","j","html-keyboard-response","147","2.1.0","255030","J=YES, F=NO","ysxomohya9","2","70","65","75","","","","","","","","","lift","baby","filler","filler","j","true","",""
"null","<p style=""font-size: 50px;"">+</p>","null","html-keyboard-response","148","2.1.0","255343","J=YES, F=NO","ysxomohya9","2","70","65","75","","","","","","","","","","","","","","","",""
"null","audio/beep-329314.mp3","null","audio-keyboard-response","149","2.1.0","256883","J=YES, F=NO","ysxomohya9","2","70","65","75","","","","","","","","","","","","","","","",""
"null","audio/golf1.wav","null","audio-keyboard-response","150","2.1.0","257453","J=YES, F=NO","ysxomohya9","2","70","65","75","","","","","","","","","","","","","","","",""
"940","
          <p id=""word"" style=""font-size: 40px;"">drabble</p>
          <p style=""font-size: 16px;"">J = YES &nbsp;&nbsp;&nbsp; F = NO</p>
        ","f","html-keyboard-response","151","2.1.0","258393","J=YES, F=NO","ysxomohya9","2","70","65","75","","","","","","","","","drabble","golf1","pseudoword","pseudoword","f","true","",""
"null","<p style=""font-size: 50px;"">+</p>","null","html-keyboard-response","152","2.1.0","258698","J=YES, F=NO","ysxomohya9","2","70","65","75","","","","","","","","","","","","","","","",""
"null","audio/beep-329314.mp3","null","audio-keyboard-response","153","2.1.0","260223","J=YES, F=NO","ysxomohya9","2","70","65","75","","","","","","","","","","","","","","","",""
"null","audio/test1.wav","null","audio-keyboard-response","154","2.1.0","260873","J=YES, F=NO","ysxomohya9","2","70","65","75","","","","","","","","","","","","","","","",""
"916","
          <p id=""word"" style=""font-size: 40px;"">twopch</p>
          <p style=""font-size: 16px;"">J = YES &nbsp;&nbsp;&nbsp; F = NO</p>
        ","f","html-keyboard-response","155","2.1.0","261790","J=YES, F=NO","ysxomohya9","2","70","65","75","","","","","","","","","twopch","test1","pseudoword","pseudoword","f","true","",""
"null","<p style=""font-size: 50px;"">+</p>","null","html-keyboard-response","156","2.1.0","262093","J=YES, F=NO","ysxomohya9","2","70","65","75","","","","","","","","","","","","","","","",""
"null","audio/beep-329314.mp3","null","audio-keyboard-response","157","2.1.0","263623","J=YES, F=NO","ysxomohya9","2","70","65","75","","","","","","","","","","","","","","","",""
"null","audio/cloud1.wav","null","audio-keyboard-response","158","2.1.0","264173","J=YES, F=NO","ysxomohya9","2","70","65","75","","","","","","","","","","","","","","","",""
"1004","
          <p id=""word"" style=""font-size: 40px;"">brotant</p>
          <p style=""font-size: 16px;"">J = YES &nbsp;&nbsp;&nbsp; F = NO</p>
        ","f","html-keyboard-response","159","2.1.0","265178","J=YES, F=NO","ysxomohya9","2","70","65","75","","","","","","","","","brotant","cloud1","pseudoword","pseudoword","f","true","",""
"null","<p style=""font-size: 50px;"">+</p>","null","html-keyboard-response","160","2.1.0","265493","J=YES, F=NO","ysxomohya9","2","70","65","75","","","","","","","","","","","","","","","",""
"null","audio/beep-329314.mp3","null","audio-keyboard-response","161","2.1.0","267023","J=YES, F=NO","ysxomohya9","2","70","65","75","","","","","","","","","","","","","","","",""
"null","audio/roof1.wav","null","audio-keyboard-response","162","2.1.0","267553","J=YES, F=NO","ysxomohya9","2","70","65","75","","","","","","","","","","","","","","","",""
"1064","
          <p id=""word"" style=""font-size: 40px;"">wronb</p>
          <p style=""font-size: 16px;"">J = YES &nbsp;&nbsp;&nbsp; F = NO</p>
        ","j","html-keyboard-response","163","2.1.0","268618","J=YES, F=NO","ysxomohya9","2","70","65","75","","","","","","","","","wronb","roof1","pseudoword","pseudoword","f","false","",""
"6947","
    <div style=""max-width: 800px; margin: auto; text-align: left;"">
      <h2>Part 2: Main Trials</h2>
      <p>Great job on the practice trials!</p>
      <p>You will now begin the <strong>main set of trials</strong>.</p>
      <p>Remember your key assignments:</p>
      <ul>
        <li><strong>J</strong> = YES (real English word)</li>
        <li><strong>F</strong> = NO (not a real English word)</li>
      </ul>
      <p>Try to respond as <strong>quickly and accurately</strong> as possible.</p>
      <p style=""margin-top: 2em;"">Press any key to begin the main trials.</p>
    </div>
  "," ","html-keyboard-response","164","2.1.0","275566","J=YES, F=NO","ysxomohya9","2","70","65","75","","","","","","","","","","","","","","","",""
"1816","<p>Starting main block 1 of 8. Press any key to continue.</p>"," ","html-keyboard-response","165","2.1.0","277382","J=YES, F=NO","ysxomohya9","2","70","65","75","","","","","","","","","","","","","","","",""
"null","<p style=""font-size: 50px;"">+</p>","null","html-keyboard-response","166","2.1.0","277690","J=YES, F=NO","ysxomohya9","2","70","65","75","","","","","","","","","","","","","","","",""
"null","audio/beep-329314.mp3","null","audio-keyboard-response","167","2.1.0","279193","J=YES, F=NO","ysxomohya9","2","70","65","75","","","","","","","","","","","","","","","",""
"null","audio/terrain.wav","null","audio-keyboard-response","168","2.1.0","279753","J=YES, F=NO","ysxomohya9","2","70","65","75","","","","","","","","","","","","","","","",""
"565","
          <p id=""word"" style=""font-size: 40px;"">twist</p>
          <p style=""font-size: 16px;"">J = YES &nbsp;&nbsp;&nbsp; F = NO</p>
        ","j","html-keyboard-response","169","2.1.0","280318","J=YES, F=NO","ysxomohya9","2","70","65","75","","","","","","","","","twist","terrain","filler","filler","j","true","",""
"null","<p style=""font-size: 50px;"">+</p>","null","html-keyboard-response","170","2.1.0","280625","J=YES, F=NO","ysxomohya9","2","70","65","75","","","","","","","","","","","","","","","",""
"null","audio/beep-329314.mp3","null","audio-keyboard-response","171","2.1.0","282153","J=YES, F=NO","ysxomohya9","2","70","65","75","","","","","","","","","","","","","","","",""
"null","audio/pattern.wav","null","audio-keyboard-response","172","2.1.0","282653","J=YES, F=NO","ysxomohya9","2","70","65","75","","","","","","","","","","","","","","","",""
"808","
          <p id=""word"" style=""font-size: 40px;"">tug</p>
          <p style=""font-size: 16px;"">J = YES &nbsp;&nbsp;&nbsp; F = NO</p>
        ","f","html-keyboard-response","173","2.1.0","283462","J=YES, F=NO","ysxomohya9","2","70","65","75","","","","","","","","","tug","pattern","filler","filler","j","false","",""
"null","<p style=""font-size: 50px;"">+</p>","null","html-keyboard-response","174","2.1.0","283776","J=YES, F=NO","ysxomohya9","2","70","65","75","","","","","","","","","","","","","","","",""
"null","audio/beep-329314.mp3","null","audio-keyboard-response","175","2.1.0","285313","J=YES, F=NO","ysxomohya9","2","70","65","75","","","","","","","","","","","","","","","",""
"null","audio/cash1.wav","null","audio-keyboard-response","176","2.1.0","285873","J=YES, F=NO","ysxomohya9","2","70","65","75","","","","","","","","","","","","","","","",""
"600","
          <p id=""word"" style=""font-size: 40px;"">splear</p>
          <p style=""font-size: 16px;"">J = YES &nbsp;&nbsp;&nbsp; F = NO</p>
        ","j","html-keyboard-response","177","2.1.0","286474","J=YES, F=NO","ysxomohya9","2","70","65","75","","","","","","","","","splear","cash1","pseudoword","pseudoword","f","false","",""
"null","<p style=""font-size: 50px;"">+</p>","null","html-keyboard-response","178","2.1.0","286777","J=YES, F=NO","ysxomohya9","2","70","65","75","","","","","","","","","","","","","","","",""
"null","audio/beep-329314.mp3","null","audio-keyboard-response","179","2.1.0","288313","J=YES, F=NO","ysxomohya9","2","70","65","75","","","","","","","","","","","","","","","",""
"null","audio/rank1.wav","null","audio-keyboard-response","180","2.1.0","288893","J=YES, F=NO","ysxomohya9","2","70","65","75","","","","","","","","","","","","","","","",""
"532","
          <p id=""word"" style=""font-size: 40px;"">climb</p>
          <p style=""font-size: 16px;"">J = YES &nbsp;&nbsp;&nbsp; F = NO</p>
        ","j","html-keyboard-response","181","2.1.0","289425","J=YES, F=NO","ysxomohya9","2","70","65","75","","","","","","","","","climb","rank1","metaphor","experimental","j","true","",""
"null","<p style=""font-size: 50px;"">+</p>","null","html-keyboard-response","182","2.1.0","289739","J=YES, F=NO","ysxomohya9","2","70","65","75","","","","","","","","","","","","","","","",""
"null","audio/beep-329314.mp3","null","audio-keyboard-response","183","2.1.0","291273","J=YES, F=NO","ysxomohya9","2","70","65","75","","","","","","","","","","","","","","","",""
"null","audio/flaw.wav","null","audio-keyboard-response","184","2.1.0","291893","J=YES, F=NO","ysxomohya9","2","70","65","75","","","","","","","","","","","","","","","",""
"503","
          <p id=""word"" style=""font-size: 40px;"">hide</p>
          <p style=""font-size: 16px;"">J = YES &nbsp;&nbsp;&nbsp; F = NO</p>
        ","j","html-keyboard-response","185","2.1.0","292397","J=YES, F=NO","ysxomohya9","2","70","65","75","","","","","","","","","hide","flaw","metaphor","experimental","j","true","",""
"null","<p style=""font-size: 50px;"">+</p>","null","html-keyboard-response","186","2.1.0","292702","J=YES, F=NO","ysxomohya9","2","70","65","75","","","","","","","","","","","","","","","",""
"null","audio/beep-329314.mp3","null","audio-keyboard-response","187","2.1.0","294233","J=YES, F=NO","ysxomohya9","2","70","65","75","","","","","","","","","","","","","","","",""
"null","audio/sand.wav","null","audio-keyboard-response","188","2.1.0","294872","J=YES, F=NO","ysxomohya9","2","70","65","75","","","","","","","","","","","","","","","",""
"904","
          <p id=""word"" style=""font-size: 40px;"">proted</p>
          <p style=""font-size: 16px;"">J = YES &nbsp;&nbsp;&nbsp; F = NO</p>
        ","f","html-keyboard-response","189","2.1.0","295777","J=YES, F=NO","ysxomohya9","2","70","65","75","","","","","","","","","proted","sand","pseudoword","pseudoword","f","true","",""
"null","<p style=""font-size: 50px;"">+</p>","null","html-keyboard-response","190","2.1.0","296088","J=YES, F=NO","ysxomohya9","2","70","65","75","","","","","","","","","","","","","","","",""
"null","audio/beep-329314.mp3","null","audio-keyboard-response","191","2.1.0","297613","J=YES, F=NO","ysxomohya9","2","70","65","75","","","","","","","","","","","","","","","",""
"null","audio/butter1.wav","null","audio-keyboard-response","192","2.1.0","298053","J=YES, F=NO","ysxomohya9","2","70","65","75","","","","","","","","","","","","","","","",""
"472","
          <p id=""word"" style=""font-size: 40px;"">spread</p>
          <p style=""font-size: 16px;"">J = YES &nbsp;&nbsp;&nbsp; F = NO</p>
        ","j","html-keyboard-response","193","2.1.0","298526","J=YES, F=NO","ysxomohya9","2","70","65","75","","","","","","","","","spread","butter1","literal","experimental","j","true","",""
"null","<p style=""font-size: 50px;"">+</p>","null","html-keyboard-response","194","2.1.0","298837","J=YES, F=NO","ysxomohya9","2","70","65","75","","","","","","","","","","","","","","","",""
"null","audio/beep-329314.mp3","null","audio-keyboard-response","195","2.1.0","300373","J=YES, F=NO","ysxomohya9","2","70","65","75","","","","","","","","","","","","","","","",""
"null","audio/bush1.wav","null","audio-keyboard-response","196","2.1.0","300833","J=YES, F=NO","ysxomohya9","2","70","65","75","","","","","","","","","","","","","","","",""
"1128","
          <p id=""word"" style=""font-size: 40px;"">platined</p>
          <p style=""font-size: 16px;"">J = YES &nbsp;&nbsp;&nbsp; F = NO</p>
        ","j","html-keyboard-response","197","2.1.0","301962","J=YES, F=NO","ysxomohya9","2","70","65","75","","","","","","","","","platined","bush1","pseudoword","pseudoword","f","false","",""
"null","<p style=""font-size: 50px;"">+</p>","null","html-keyboard-response","198","2.1.0","302273","J=YES, F=NO","ysxomohya9","2","70","65","75","","","","","","","","","","","","","","","",""
"null","audio/beep-329314.mp3","null","audio-keyboard-response","199","2.1.0","303813","J=YES, F=NO","ysxomohya9","2","70","65","75","","","","","","","","","","","","","","","",""
"null","audio/van1.wav","null","audio-keyboard-response","200","2.1.0","304293","J=YES, F=NO","ysxomohya9","2","70","65","75","","","","","","","","","","","","","","","",""
"441","
          <p id=""word"" style=""font-size: 40px;"">push</p>
          <p style=""font-size: 16px;"">J = YES &nbsp;&nbsp;&nbsp; F = NO</p>
        ","j","html-keyboard-response","201","2.1.0","304734","J=YES, F=NO","ysxomohya9","2","70","65","75","","","","","","","","","push","van1","filler","filler","j","true","",""
"null","<p style=""font-size: 50px;"">+</p>","null","html-keyboard-response","202","2.1.0","305045","J=YES, F=NO","ysxomohya9","2","70","65","75","","","","","","","","","","","","","","","",""
"null","audio/beep-329314.mp3","null","audio-keyboard-response","203","2.1.0","306573","J=YES, F=NO","ysxomohya9","2","70","65","75","","","","","","","","","","","","","","","",""
"null","audio/emotion.wav","null","audio-keyboard-response","204","2.1.0","307213","J=YES, F=NO","ysxomohya9","2","70","65","75","","","","","","","","","","","","","","","",""
"676","
          <p id=""word"" style=""font-size: 40px;"">devering</p>
          <p style=""font-size: 16px;"">J = YES &nbsp;&nbsp;&nbsp; F = NO</p>
        ","f","html-keyboard-response","205","2.1.0","307890","J=YES, F=NO","ysxomohya9","2","70","65","75","","","","","","","","","devering","emotion","pseudoword","pseudoword","f","true","",""
"null","<p style=""font-size: 50px;"">+</p>","null","html-keyboard-response","206","2.1.0","308205","J=YES, F=NO","ysxomohya9","2","70","65","75","","","","","","","","","","","","","","","",""
"null","audio/beep-329314.mp3","null","audio-keyboard-response","207","2.1.0","309733","J=YES, F=NO","ysxomohya9","2","70","65","75","","","","","","","","","","","","","","","",""
"null","audio/burden.wav","null","audio-keyboard-response","208","2.1.0","310233","J=YES, F=NO","ysxomohya9","2","70","65","75","","","","","","","","","","","","","","","",""
"620","
          <p id=""word"" style=""font-size: 40px;"">whotth</p>
          <p style=""font-size: 16px;"">J = YES &nbsp;&nbsp;&nbsp; F = NO</p>
        ","f","html-keyboard-response","209","2.1.0","310853","J=YES, F=NO","ysxomohya9","2","70","65","75","","","","","","","","","whotth","burden","pseudoword","pseudoword","f","true","",""
"null","<p style=""font-size: 50px;"">+</p>","null","html-keyboard-response","210","2.1.0","311169","J=YES, F=NO","ysxomohya9","2","70","65","75","","","","","","","","","","","","","","","",""
"null","audio/beep-329314.mp3","null","audio-keyboard-response","211","2.1.0","312693","J=YES, F=NO","ysxomohya9","2","70","65","75","","","","","","","","","","","","","","","",""
"null","audio/noise1.wav","null","audio-keyboard-response","212","2.1.0","313293","J=YES, F=NO","ysxomohya9","2","70","65","75","","","","","","","","","","","","","","","",""
"968","
          <p id=""word"" style=""font-size: 40px;"">slintered</p>
          <p style=""font-size: 16px;"">J = YES &nbsp;&nbsp;&nbsp; F = NO</p>
        ","j","html-keyboard-response","213","2.1.0","314261","J=YES, F=NO","ysxomohya9","2","70","65","75","","","","","","","","","slintered","noise1","pseudoword","pseudoword","f","false","",""
"null","<p style=""font-size: 50px;"">+</p>","null","html-keyboard-response","214","2.1.0","314573","J=YES, F=NO","ysxomohya9","2","70","65","75","","","","","","","","","","","","","","","",""
"null","audio/beep-329314.mp3","null","audio-keyboard-response","215","2.1.0","316113","J=YES, F=NO","ysxomohya9","2","70","65","75","","","","","","","","","","","","","","","",""
"null","audio/planet1.wav","null","audio-keyboard-response","216","2.1.0","316692","J=YES, F=NO","ysxomohya9","2","70","65","75","","","","","","","","","","","","","","","",""
"753","
          <p id=""word"" style=""font-size: 40px;"">cratched</p>
          <p style=""font-size: 16px;"">J = YES &nbsp;&nbsp;&nbsp; F = NO</p>
        ","j","html-keyboard-response","217","2.1.0","317446","J=YES, F=NO","ysxomohya9","2","70","65","75","","","","","","","","","cratched","planet1","pseudoword","pseudoword","f","false","",""
"null","<p style=""font-size: 50px;"">+</p>","null","html-keyboard-response","218","2.1.0","317754","J=YES, F=NO","ysxomohya9","2","70","65","75","","","","","","","","","","","","","","","",""
"null","audio/beep-329314.mp3","null","audio-keyboard-response","219","2.1.0","319293","J=YES, F=NO","ysxomohya9","2","70","65","75","","","","","","","","","","","","","","","",""
"null","audio/tunnel.wav","null","audio-keyboard-response","220","2.1.0","319713","J=YES, F=NO","ysxomohya9","2","70","65","75","","","","","","","","","","","","","","","",""
"468","
          <p id=""word"" style=""font-size: 40px;"">gred</p>
          <p style=""font-size: 16px;"">J = YES &nbsp;&nbsp;&nbsp; F = NO</p>
        ","j","html-keyboard-response","221","2.1.0","320182","J=YES, F=NO","ysxomohya9","2","70","65","75","","","","","","","","","gred","tunnel","pseudoword","pseudoword","f","false","",""
"null","<p style=""font-size: 50px;"">+</p>","null","html-keyboard-response","222","2.1.0","320490","J=YES, F=NO","ysxomohya9","2","70","65","75","","","","","","","","","","","","","","","",""
"null","audio/beep-329314.mp3","null","audio-keyboard-response","223","2.1.0","322013","J=YES, F=NO","ysxomohya9","2","70","65","75","","","","","","","","","","","","","","","",""
"null","audio/mouth1.wav","null","audio-keyboard-response","224","2.1.0","322593","J=YES, F=NO","ysxomohya9","2","70","65","75","","","","","","","","","","","","","","","",""
"824","
          <p id=""word"" style=""font-size: 40px;"">spolial</p>
          <p style=""font-size: 16px;"">J = YES &nbsp;&nbsp;&nbsp; F = NO</p>
        ","f","html-keyboard-response","225","2.1.0","323418","J=YES, F=NO","ysxomohya9","2","70","65","75","","","","","","","","","spolial","mouth1","pseudoword","pseudoword","f","true","",""
"null","<p style=""font-size: 50px;"">+</p>","null","html-keyboard-response","226","2.1.0","323721","J=YES, F=NO","ysxomohya9","2","70","65","75","","","","","","","","","","","","","","","",""
"null","audio/beep-329314.mp3","null","audio-keyboard-response","227","2.1.0","325253","J=YES, F=NO","ysxomohya9","2","70","65","75","","","","","","","","","","","","","","","",""
"null","audio/topic.wav","null","audio-keyboard-response","228","2.1.0","326013","J=YES, F=NO","ysxomohya9","2","70","65","75","","","","","","","","","","","","","","","",""
"940","
          <p id=""word"" style=""font-size: 40px;"">infortuitist</p>
          <p style=""font-size: 16px;"">J = YES &nbsp;&nbsp;&nbsp; F = NO</p>
        ","f","html-keyboard-response","229","2.1.0","326953","J=YES, F=NO","ysxomohya9","2","70","65","75","","","","","","","","","infortuitist","topic","pseudoword","pseudoword","f","true","",""
"3192","<p>Excellent! You have finished block 1 of 8.</p>
                     <p>Feel free to take a 30 second break.</p>
                     <p>Press any key when you're ready to continue.</p>"," ","html-keyboard-response","230","2.1.0","330145","J=YES, F=NO","ysxomohya9","2","70","65","75","","","","","","","","","","","","","","","",""
"1587","<p>Starting main block 2 of 8. Press any key to continue.</p>"," ","html-keyboard-response","231","2.1.0","331733","J=YES, F=NO","ysxomohya9","2","70","65","75","","","","","","","","","","","","","","","",""
"null","<p style=""font-size: 50px;"">+</p>","null","html-keyboard-response","232","2.1.0","332037","J=YES, F=NO","ysxomohya9","2","70","65","75","","","","","","","","","","","","","","","",""
"null","audio/beep-329314.mp3","null","audio-keyboard-response","233","2.1.0","333573","J=YES, F=NO","ysxomohya9","2","70","65","75","","","","","","","","","","","","","","","",""
"null","audio/price.wav","null","audio-keyboard-response","234","2.1.0","334193","J=YES, F=NO","ysxomohya9","2","70","65","75","","","","","","","","","","","","","","","",""
"496","
          <p id=""word"" style=""font-size: 40px;"">drop</p>
          <p style=""font-size: 16px;"">J = YES &nbsp;&nbsp;&nbsp; F = NO</p>
        ","j","html-keyboard-response","235","2.1.0","334690","J=YES, F=NO","ysxomohya9","2","70","65","75","","","","","","","","","drop","price","metaphor","experimental","j","true","",""
"null","<p style=""font-size: 50px;"">+</p>","null","html-keyboard-response","236","2.1.0","334998","J=YES, F=NO","ysxomohya9","2","70","65","75","","","","","","","","","","","","","","","",""
"null","audio/beep-329314.mp3","null","audio-keyboard-response","237","2.1.0","336533","J=YES, F=NO","ysxomohya9","2","70","65","75","","","","","","","","","","","","","","","",""
"null","audio/gossip1.wav","null","audio-keyboard-response","238","2.1.0","337153","J=YES, F=NO","ysxomohya9","2","70","65","75","","","","","","","","","","","","","","","",""
"620","
          <p id=""word"" style=""font-size: 40px;"">camerish</p>
          <p style=""font-size: 16px;"">J = YES &nbsp;&nbsp;&nbsp; F = NO</p>
        ","j","html-keyboard-response","239","2.1.0","337773","J=YES, F=NO","ysxomohya9","2","70","65","75","","","","","","","","","camerish","gossip1","pseudoword","pseudoword","f","false","",""
"null","<p style=""font-size: 50px;"">+</p>","null","html-keyboard-response","240","2.1.0","338087","J=YES, F=NO","ysxomohya9","2","70","65","75","","","","","","","","","","","","","","","",""
"null","audio/beep-329314.mp3","null","audio-keyboard-response","241","2.1.0","339613","J=YES, F=NO","ysxomohya9","2","70","65","75","","","","","","","","","","","","","","","",""
"null","audio/golf1.wav","null","audio-keyboard-response","242","2.1.0","340173","J=YES, F=NO","ysxomohya9","2","70","65","75","","","","","","","","","","","","","","","",""
"428","
          <p id=""word"" style=""font-size: 40px;"">bury</p>
          <p style=""font-size: 16px;"">J = YES &nbsp;&nbsp;&nbsp; F = NO</p>
        ","j","html-keyboard-response","243","2.1.0","340601","J=YES, F=NO","ysxomohya9","2","70","65","75","","","","","","","","","bury","golf1","unrelated","experimental","j","true","",""
"null","<p style=""font-size: 50px;"">+</p>","null","html-keyboard-response","244","2.1.0","340906","J=YES, F=NO","ysxomohya9","2","70","65","75","","","","","","","","","","","","","","","",""
"null","audio/beep-329314.mp3","null","audio-keyboard-response","245","2.1.0","342432","J=YES, F=NO","ysxomohya9","2","70","65","75","","","","","","","","","","","","","","","",""
"null","audio/uncle1.wav","null","audio-keyboard-response","246","2.1.0","342913","J=YES, F=NO","ysxomohya9","2","70","65","75","","","","","","","","","","","","","","","",""
"564","
          <p id=""word"" style=""font-size: 40px;"">dramble</p>
          <p style=""font-size: 16px;"">J = YES &nbsp;&nbsp;&nbsp; F = NO</p>
        ","j","html-keyboard-response","247","2.1.0","343477","J=YES, F=NO","ysxomohya9","2","70","65","75","","","","","","","","","dramble","uncle1","pseudoword","pseudoword","f","false","",""
"null","<p style=""font-size: 50px;"">+</p>","null","html-keyboard-response","248","2.1.0","343789","J=YES, F=NO","ysxomohya9","2","70","65","75","","","","","","","","","","","","","","","",""
"null","audio/beep-329314.mp3","null","audio-keyboard-response","249","2.1.0","345313","J=YES, F=NO","ysxomohya9","2","70","65","75","","","","","","","","","","","","","","","",""
"null","audio/foe1.wav","null","audio-keyboard-response","250","2.1.0","345833","J=YES, F=NO","ysxomohya9","2","70","65","75","","","","","","","","","","","","","","","",""
"507","
          <p id=""word"" style=""font-size: 40px;"">conquer</p>
          <p style=""font-size: 16px;"">J = YES &nbsp;&nbsp;&nbsp; F = NO</p>
        ","f","html-keyboard-response","251","2.1.0","346341","J=YES, F=NO","ysxomohya9","2","70","65","75","","","","","","","","","conquer","foe1","literal","experimental","j","false","",""
"null","<p style=""font-size: 50px;"">+</p>","null","html-keyboard-response","252","2.1.0","346652","J=YES, F=NO","ysxomohya9","2","70","65","75","","","","","","","","","","","","","","","",""
"null","audio/beep-329314.mp3","null","audio-keyboard-response","253","2.1.0","348193","J=YES, F=NO","ysxomohya9","2","70","65","75","","","","","","","","","","","","","","","",""
"null","audio/beach1.wav","null","audio-keyboard-response","254","2.1.0","348773","J=YES, F=NO","ysxomohya9","2","70","65","75","","","","","","","","","","","","","","","",""
"584","
          <p id=""word"" style=""font-size: 40px;"">cut</p>
          <p style=""font-size: 16px;"">J = YES &nbsp;&nbsp;&nbsp; F = NO</p>
        ","j","html-keyboard-response","255","2.1.0","349358","J=YES, F=NO","ysxomohya9","2","70","65","75","","","","","","","","","cut","beach1","unrelated","experimental","j","true","",""
"null","<p style=""font-size: 50px;"">+</p>","null","html-keyboard-response","256","2.1.0","349671","J=YES, F=NO","ysxomohya9","2","70","65","75","","","","","","","","","","","","","","","",""
"null","audio/beep-329314.mp3","null","audio-keyboard-response","257","2.1.0","351193","J=YES, F=NO","ysxomohya9","2","70","65","75","","","","","","","","","","","","","","","",""
"null","audio/tomato.wav","null","audio-keyboard-response","258","2.1.0","351852","J=YES, F=NO","ysxomohya9","2","70","65","75","","","","","","","","","","","","","","","",""
"528","
          <p id=""word"" style=""font-size: 40px;"">gladies</p>
          <p style=""font-size: 16px;"">J = YES &nbsp;&nbsp;&nbsp; F = NO</p>
        ","j","html-keyboard-response","259","2.1.0","352381","J=YES, F=NO","ysxomohya9","2","70","65","75","","","","","","","","","gladies","tomato","pseudoword","pseudoword","f","false","",""
"null","<p style=""font-size: 50px;"">+</p>","null","html-keyboard-response","260","2.1.0","352686","J=YES, F=NO","ysxomohya9","2","70","65","75","","","","","","","","","","","","","","","",""
"null","audio/beep-329314.mp3","null","audio-keyboard-response","261","2.1.0","354212","J=YES, F=NO","ysxomohya9","2","70","65","75","","","","","","","","","","","","","","","",""
"null","audio/heart1.wav","null","audio-keyboard-response","262","2.1.0","354833","J=YES, F=NO","ysxomohya9","2","70","65","75","","","","","","","","","","","","","","","",""
"716","
          <p id=""word"" style=""font-size: 40px;"">dralm</p>
          <p style=""font-size: 16px;"">J = YES &nbsp;&nbsp;&nbsp; F = NO</p>
        ","f","html-keyboard-response","263","2.1.0","355549","J=YES, F=NO","ysxomohya9","2","70","65","75","","","","","","","","","dralm","heart1","pseudoword","pseudoword","f","true","",""
"null","<p style=""font-size: 50px;"">+</p>","null","html-keyboard-response","264","2.1.0","355852","J=YES, F=NO","ysxomohya9","2","70","65","75","","","","","","","","","","","","","","","",""
"null","audio/beep-329314.mp3","null","audio-keyboard-response","265","2.1.0","357393","J=YES, F=NO","ysxomohya9","2","70","65","75","","","","","","","","","","","","","","","",""
"null","audio/alarm1.wav","null","audio-keyboard-response","266","2.1.0","357973","J=YES, F=NO","ysxomohya9","2","70","65","75","","","","","","","","","","","","","","","",""
"373","
          <p id=""word"" style=""font-size: 40px;"">save</p>
          <p style=""font-size: 16px;"">J = YES &nbsp;&nbsp;&nbsp; F = NO</p>
        ","j","html-keyboard-response","267","2.1.0","358346","J=YES, F=NO","ysxomohya9","2","70","65","75","","","","","","","","","save","alarm1","unrelated","experimental","j","true","",""
"null","<p style=""font-size: 50px;"">+</p>","null","html-keyboard-response","268","2.1.0","358654","J=YES, F=NO","ysxomohya9","2","70","65","75","","","","","","","","","","","","","","","",""
"null","audio/beep-329314.mp3","null","audio-keyboard-response","269","2.1.0","360192","J=YES, F=NO","ysxomohya9","2","70","65","75","","","","","","","","","","","","","","","",""
"null","audio/chance.wav","null","audio-keyboard-response","270","2.1.0","360833","J=YES, F=NO","ysxomohya9","2","70","65","75","","","","","","","","","","","","","","","",""
"572","
          <p id=""word"" style=""font-size: 40px;"">seize</p>
          <p style=""font-size: 16px;"">J = YES &nbsp;&nbsp;&nbsp; F = NO</p>
        ","j","html-keyboard-response","271","2.1.0","361406","J=YES, F=NO","ysxomohya9","2","70","65","75","","","","","","","","","seize","chance","metaphor","experimental","j","true","",""
"null","<p style=""font-size: 50px;"">+</p>","null","html-keyboard-response","272","2.1.0","361721","J=YES, F=NO","ysxomohya9","2","70","65","75","","","","","","","","","","","","","","","",""
"null","audio/beep-329314.mp3","null","audio-keyboard-response","273","2.1.0","363253","J=YES, F=NO","ysxomohya9","2","70","65","75","","","","","","","","","","","","","","","",""
"null","audio/tax1.wav","null","audio-keyboard-response","274","2.1.0","363853","J=YES, F=NO","ysxomohya9","2","70","65","75","","","","","","","","","","","","","","","",""
"761","
          <p id=""word"" style=""font-size: 40px;"">snate</p>
          <p style=""font-size: 16px;"">J = YES &nbsp;&nbsp;&nbsp; F = NO</p>
        ","f","html-keyboard-response","275","2.1.0","364614","J=YES, F=NO","ysxomohya9","2","70","65","75","","","","","","","","","snate","tax1","pseudoword","pseudoword","f","true","",""
"null","<p style=""font-size: 50px;"">+</p>","null","html-keyboard-response","276","2.1.0","364924","J=YES, F=NO","ysxomohya9","2","70","65","75","","","","","","","","","","","","","","","",""
"null","audio/beep-329314.mp3","null","audio-keyboard-response","277","2.1.0","366453","J=YES, F=NO","ysxomohya9","2","70","65","75","","","","","","","","","","","","","","","",""
"null","audio/battle1.wav","null","audio-keyboard-response","278","2.1.0","366912","J=YES, F=NO","ysxomohya9","2","70","65","75","","","","","","","","","","","","","","","",""
"492","
          <p id=""word"" style=""font-size: 40px;"">fight</p>
          <p style=""font-size: 16px;"">J = YES &nbsp;&nbsp;&nbsp; F = NO</p>
        ","j","html-keyboard-response","279","2.1.0","367405","J=YES, F=NO","ysxomohya9","2","70","65","75","","","","","","","","","fight","battle1","literal","experimental","j","true","",""
"null","<p style=""font-size: 50px;"">+</p>","null","html-keyboard-response","280","2.1.0","367715","J=YES, F=NO","ysxomohya9","2","70","65","75","","","","","","","","","","","","","","","",""
"null","audio/beep-329314.mp3","null","audio-keyboard-response","281","2.1.0","369253","J=YES, F=NO","ysxomohya9","2","70","65","75","","","","","","","","","","","","","","","",""
"null","audio/holiday1.wav","null","audio-keyboard-response","282","2.1.0","369893","J=YES, F=NO","ysxomohya9","2","70","65","75","","","","","","","","","","","","","","","",""
"524","
          <p id=""word"" style=""font-size: 40px;"">spend</p>
          <p style=""font-size: 16px;"">J = YES &nbsp;&nbsp;&nbsp; F = NO</p>
        ","j","html-keyboard-response","283","2.1.0","370418","J=YES, F=NO","ysxomohya9","2","70","65","75","","","","","","","","","spend","holiday1","metaphor","experimental","j","true","",""
"null","<p style=""font-size: 50px;"">+</p>","null","html-keyboard-response","284","2.1.0","370720","J=YES, F=NO","ysxomohya9","2","70","65","75","","","","","","","","","","","","","","","",""
"null","audio/beep-329314.mp3","null","audio-keyboard-response","285","2.1.0","372253","J=YES, F=NO","ysxomohya9","2","70","65","75","","","","","","","","","","","","","","","",""
"null","audio/meal.wav","null","audio-keyboard-response","286","2.1.0","372692","J=YES, F=NO","ysxomohya9","2","70","65","75","","","","","","","","","","","","","","","",""
"860","
          <p id=""word"" style=""font-size: 40px;"">gallite</p>
          <p style=""font-size: 16px;"">J = YES &nbsp;&nbsp;&nbsp; F = NO</p>
        ","j","html-keyboard-response","287","2.1.0","373553","J=YES, F=NO","ysxomohya9","2","70","65","75","","","","","","","","","gallite","meal","pseudoword","pseudoword","f","false","",""
"null","<p style=""font-size: 50px;"">+</p>","null","html-keyboard-response","288","2.1.0","373866","J=YES, F=NO","ysxomohya9","2","70","65","75","","","","","","","","","","","","","","","",""
"null","audio/beep-329314.mp3","null","audio-keyboard-response","289","2.1.0","375393","J=YES, F=NO","ysxomohya9","2","70","65","75","","","","","","","","","","","","","","","",""
"null","audio/bishop1.wav","null","audio-keyboard-response","290","2.1.0","375973","J=YES, F=NO","ysxomohya9","2","70","65","75","","","","","","","","","","","","","","","",""
"467","
          <p id=""word"" style=""font-size: 40px;"">play</p>
          <p style=""font-size: 16px;"">J = YES &nbsp;&nbsp;&nbsp; F = NO</p>
        ","j","html-keyboard-response","291","2.1.0","376441","J=YES, F=NO","ysxomohya9","2","70","65","75","","","","","","","","","play","bishop1","filler","filler","j","true","",""
"null","<p style=""font-size: 50px;"">+</p>","null","html-keyboard-response","292","2.1.0","376750","J=YES, F=NO","ysxomohya9","2","70","65","75","","","","","","","","","","","","","","","",""
"null","audio/beep-329314.mp3","null","audio-keyboard-response","293","2.1.0","378272","J=YES, F=NO","ysxomohya9","2","70","65","75","","","","","","","","","","","","","","","",""
"null","audio/show.wav","null","audio-keyboard-response","294","2.1.0","378833","J=YES, F=NO","ysxomohya9","2","70","65","75","","","","","","","","","","","","","","","",""
"760","
          <p id=""word"" style=""font-size: 40px;"">smark</p>
          <p style=""font-size: 16px;"">J = YES &nbsp;&nbsp;&nbsp; F = NO</p>
        ","j","html-keyboard-response","295","2.1.0","379593","J=YES, F=NO","ysxomohya9","2","70","65","75","","","","","","","","","smark","show","pseudoword","pseudoword","f","false","",""
"1216","<p>Excellent! You have finished block 2 of 8.</p>
                     <p>Feel free to take a 30 second break.</p>
                     <p>Press any key when you're ready to continue.</p>"," ","html-keyboard-response","296","2.1.0","380809","J=YES, F=NO","ysxomohya9","2","70","65","75","","","","","","","","","","","","","","","",""
"595","<p>Starting main block 3 of 8. Press any key to continue.</p>"," ","html-keyboard-response","297","2.1.0","381405","J=YES, F=NO","ysxomohya9","2","70","65","75","","","","","","","","","","","","","","","",""
"null","<p style=""font-size: 50px;"">+</p>","null","html-keyboard-response","298","2.1.0","381711","J=YES, F=NO","ysxomohya9","2","70","65","75","","","","","","","","","","","","","","","",""
"null","audio/beep-329314.mp3","null","audio-keyboard-response","299","2.1.0","383233","J=YES, F=NO","ysxomohya9","2","70","65","75","","","","","","","","","","","","","","","",""
"null","audio/arm.wav","null","audio-keyboard-response","300","2.1.0","383773","J=YES, F=NO","ysxomohya9","2","70","65","75","","","","","","","","","","","","","","","",""
"780","
          <p id=""word"" style=""font-size: 40px;"">pigne</p>
          <p style=""font-size: 16px;"">J = YES &nbsp;&nbsp;&nbsp; F = NO</p>
        ","f","html-keyboard-response","301","2.1.0","384553","J=YES, F=NO","ysxomohya9","2","70","65","75","","","","","","","","","pigne","arm","pseudoword","pseudoword","f","true","",""
"null","<p style=""font-size: 50px;"">+</p>","null","html-keyboard-response","302","2.1.0","384867","J=YES, F=NO","ysxomohya9","2","70","65","75","","","","","","","","","","","","","","","",""
"null","audio/beep-329314.mp3","null","audio-keyboard-response","303","2.1.0","386393","J=YES, F=NO","ysxomohya9","2","70","65","75","","","","","","","","","","","","","","","",""
"null","audio/wealth1.wav","null","audio-keyboard-response","304","2.1.0","386953","J=YES, F=NO","ysxomohya9","2","70","65","75","","","","","","","","","","","","","","","",""
"776","
          <p id=""word"" style=""font-size: 40px;"">possess</p>
          <p style=""font-size: 16px;"">J = YES &nbsp;&nbsp;&nbsp; F = NO</p>
        ","j","html-keyboard-response","305","2.1.0","387730","J=YES, F=NO","ysxomohya9","2","70","65","75","","","","","","","","","possess","wealth1","literal","experimental","j","true","",""
"null","<p style=""font-size: 50px;"">+</p>","null","html-keyboard-response","306","2.1.0","388036","J=YES, F=NO","ysxomohya9","2","70","65","75","","","","","","","","","","","","","","","",""
"null","audio/beep-329314.mp3","null","audio-keyboard-response","307","2.1.0","389573","J=YES, F=NO","ysxomohya9","2","70","65","75","","","","","","","","","","","","","","","",""
"null","audio/trout1.wav","null","audio-keyboard-response","308","2.1.0","390153","J=YES, F=NO","ysxomohya9","2","70","65","75","","","","","","","","","","","","","","","",""
"740","
          <p id=""word"" style=""font-size: 40px;"">spimt</p>
          <p style=""font-size: 16px;"">J = YES &nbsp;&nbsp;&nbsp; F = NO</p>
        ","f","html-keyboard-response","309","2.1.0","390893","J=YES, F=NO","ysxomohya9","2","70","65","75","","","","","","","","","spimt","trout1","pseudoword","pseudoword","f","true","",""
"null","<p style=""font-size: 50px;"">+</p>","null","html-keyboard-response","310","2.1.0","391200","J=YES, F=NO","ysxomohya9","2","70","65","75","","","","","","","","","","","","","","","",""
"null","audio/beep-329314.mp3","null","audio-keyboard-response","311","2.1.0","392733","J=YES, F=NO","ysxomohya9","2","70","65","75","","","","","","","","","","","","","","","",""
"null","audio/novel.wav","null","audio-keyboard-response","312","2.1.0","393213","J=YES, F=NO","ysxomohya9","2","70","65","75","","","","","","","","","","","","","","","",""
"549","
          <p id=""word"" style=""font-size: 40px;"">devour</p>
          <p style=""font-size: 16px;"">J = YES &nbsp;&nbsp;&nbsp; F = NO</p>
        ","j","html-keyboard-response","313","2.1.0","393762","J=YES, F=NO","ysxomohya9","2","70","65","75","","","","","","","","","devour","novel","metaphor","experimental","j","true","",""
"null","<p style=""font-size: 50px;"">+</p>","null","html-keyboard-response","314","2.1.0","394069","J=YES, F=NO","ysxomohya9","2","70","65","75","","","","","","","","","","","","","","","",""
"null","audio/beep-329314.mp3","null","audio-keyboard-response","315","2.1.0","395593","J=YES, F=NO","ysxomohya9","2","70","65","75","","","","","","","","","","","","","","","",""
"null","audio/window1.wav","null","audio-keyboard-response","316","2.1.0","396193","J=YES, F=NO","ysxomohya9","2","70","65","75","","","","","","","","","","","","","","","",""
"620","
          <p id=""word"" style=""font-size: 40px;"">toss</p>
          <p style=""font-size: 16px;"">J = YES &nbsp;&nbsp;&nbsp; F = NO</p>
        ","j","html-keyboard-response","317","2.1.0","396813","J=YES, F=NO","ysxomohya9","2","70","65","75","","","","","","","","","toss","window1","filler","filler","j","true","",""
"null","<p style=""font-size: 50px;"">+</p>","null","html-keyboard-response","318","2.1.0","397119","J=YES, F=NO","ysxomohya9","2","70","65","75","","","","","","","","","","","","","","","",""
"null","audio/beep-329314.mp3","null","audio-keyboard-response","319","2.1.0","398653","J=YES, F=NO","ysxomohya9","2","70","65","75","","","","","","","","","","","","","","","",""
"null","audio/radio1.wav","null","audio-keyboard-response","320","2.1.0","399233","J=YES, F=NO","ysxomohya9","2","70","65","75","","","","","","","","","","","","","","","",""
"921","
          <p id=""word"" style=""font-size: 40px;"">blanter</p>
          <p style=""font-size: 16px;"">J = YES &nbsp;&nbsp;&nbsp; F = NO</p>
        ","f","html-keyboard-response","321","2.1.0","400154","J=YES, F=NO","ysxomohya9","2","70","65","75","","","","","","","","","blanter","radio1","pseudoword","pseudoword","f","true","",""
"null","<p style=""font-size: 50px;"">+</p>","null","html-keyboard-response","322","2.1.0","400470","J=YES, F=NO","ysxomohya9","2","70","65","75","","","","","","","","","","","","","","","",""
"null","audio/beep-329314.mp3","null","audio-keyboard-response","323","2.1.0","401993","J=YES, F=NO","ysxomohya9","2","70","65","75","","","","","","","","","","","","","","","",""
"null","audio/baby.wav","null","audio-keyboard-response","324","2.1.0","402453","J=YES, F=NO","ysxomohya9","2","70","65","75","","","","","","","","","","","","","","","",""
"433","
          <p id=""word"" style=""font-size: 40px;"">hold</p>
          <p style=""font-size: 16px;"">J = YES &nbsp;&nbsp;&nbsp; F = NO</p>
        ","j","html-keyboard-response","325","2.1.0","402886","J=YES, F=NO","ysxomohya9","2","70","65","75","","","","","","","","","hold","baby","literal","experimental","j","true","",""
"null","<p style=""font-size: 50px;"">+</p>","null","html-keyboard-response","326","2.1.0","403201","J=YES, F=NO","ysxomohya9","2","70","65","75","","","","","","","","","","","","","","","",""
"null","audio/beep-329314.mp3","null","audio-keyboard-response","327","2.1.0","404732","J=YES, F=NO","ysxomohya9","2","70","65","75","","","","","","","","","","","","","","","",""
"null","audio/purpose.wav","null","audio-keyboard-response","328","2.1.0","405393","J=YES, F=NO","ysxomohya9","2","70","65","75","","","","","","","","","","","","","","","",""
"708","
          <p id=""word"" style=""font-size: 40px;"">whigm</p>
          <p style=""font-size: 16px;"">J = YES &nbsp;&nbsp;&nbsp; F = NO</p>
        ","f","html-keyboard-response","329","2.1.0","406101","J=YES, F=NO","ysxomohya9","2","70","65","75","","","","","","","","","whigm","purpose","pseudoword","pseudoword","f","true","",""
"null","<p style=""font-size: 50px;"">+</p>","null","html-keyboard-response","330","2.1.0","406403","J=YES, F=NO","ysxomohya9","2","70","65","75","","","","","","","","","","","","","","","",""
"null","audio/beep-329314.mp3","null","audio-keyboard-response","331","2.1.0","407933","J=YES, F=NO","ysxomohya9","2","70","65","75","","","","","","","","","","","","","","","",""
"null","audio/handle.wav","null","audio-keyboard-response","332","2.1.0","408553","J=YES, F=NO","ysxomohya9","2","70","65","75","","","","","","","","","","","","","","","",""
"411","
          <p id=""word"" style=""font-size: 40px;"">grasp</p>
          <p style=""font-size: 16px;"">J = YES &nbsp;&nbsp;&nbsp; F = NO</p>
        ","j","html-keyboard-response","333","2.1.0","408965","J=YES, F=NO","ysxomohya9","2","70","65","75","","","","","","","","","grasp","handle","literal","experimental","j","true","",""
"null","<p style=""font-size: 50px;"">+</p>","null","html-keyboard-response","334","2.1.0","409269","J=YES, F=NO","ysxomohya9","2","70","65","75","","","","","","","","","","","","","","","",""
"null","audio/beep-329314.mp3","null","audio-keyboard-response","335","2.1.0","410793","J=YES, F=NO","ysxomohya9","2","70","65","75","","","","","","","","","","","","","","","",""
"null","audio/trust.wav","null","audio-keyboard-response","336","2.1.0","411413","J=YES, F=NO","ysxomohya9","2","70","65","75","","","","","","","","","","","","","","","",""
"540","
          <p id=""word"" style=""font-size: 40px;"">swint</p>
          <p style=""font-size: 16px;"">J = YES &nbsp;&nbsp;&nbsp; F = NO</p>
        ","j","html-keyboard-response","337","2.1.0","411953","J=YES, F=NO","ysxomohya9","2","70","65","75","","","","","","","","","swint","trust","pseudoword","pseudoword","f","false","",""
"null","<p style=""font-size: 50px;"">+</p>","null","html-keyboard-response","338","2.1.0","412267","J=YES, F=NO","ysxomohya9","2","70","65","75","","","","","","","","","","","","","","","",""
"null","audio/beep-329314.mp3","null","audio-keyboard-response","339","2.1.0","413793","J=YES, F=NO","ysxomohya9","2","70","65","75","","","","","","","","","","","","","","","",""
"null","audio/topic.wav","null","audio-keyboard-response","340","2.1.0","414353","J=YES, F=NO","ysxomohya9","2","70","65","75","","","","","","","","","","","","","","","",""
"612","
          <p id=""word"" style=""font-size: 40px;"">approach</p>
          <p style=""font-size: 16px;"">J = YES &nbsp;&nbsp;&nbsp; F = NO</p>
        ","j","html-keyboard-response","341","2.1.0","414965","J=YES, F=NO","ysxomohya9","2","70","65","75","","","","","","","","","approach","topic","metaphor","experimental","j","true","",""
"null","<p style=""font-size: 50px;"">+</p>","null","html-keyboard-response","342","2.1.0","415281","J=YES, F=NO","ysxomohya9","2","70","65","75","","","","","","","","","","","","","","","",""
"null","audio/beep-329314.mp3","null","audio-keyboard-response","343","2.1.0","416813","J=YES, F=NO","ysxomohya9","2","70","65","75","","","","","","","","","","","","","","","",""
"null","audio/smirk1.wav","null","audio-keyboard-response","344","2.1.0","417533","J=YES, F=NO","ysxomohya9","2","70","65","75","","","","","","","","","","","","","","","",""
"664","
          <p id=""word"" style=""font-size: 40px;"">snopt</p>
          <p style=""font-size: 16px;"">J = YES &nbsp;&nbsp;&nbsp; F = NO</p>
        ","f","html-keyboard-response","345","2.1.0","418197","J=YES, F=NO","ysxomohya9","2","70","65","75","","","","","","","","","snopt","smirk1","pseudoword","pseudoword","f","true","",""
"null","<p style=""font-size: 50px;"">+</p>","null","html-keyboard-response","346","2.1.0","418499","J=YES, F=NO","ysxomohya9","2","70","65","75","","","","","","","","","","","","","","","",""
"null","audio/beep-329314.mp3","null","audio-keyboard-response","347","2.1.0","420033","J=YES, F=NO","ysxomohya9","2","70","65","75","","","","","","","","","","","","","","","",""
"null","audio/desire.wav","null","audio-keyboard-response","348","2.1.0","420633","J=YES, F=NO","ysxomohya9","2","70","65","75","","","","","","","","","","","","","","","",""
"420","
          <p id=""word"" style=""font-size: 40px;"">open</p>
          <p style=""font-size: 16px;"">J = YES &nbsp;&nbsp;&nbsp; F = NO</p>
        ","j","html-keyboard-response","349","2.1.0","421053","J=YES, F=NO","ysxomohya9","2","70","65","75","","","","","","","","","open","desire","unrelated","experimental","j","true","",""
"null","<p style=""font-size: 50px;"">+</p>","null","html-keyboard-response","350","2.1.0","421363","J=YES, F=NO","ysxomohya9","2","70","65","75","","","","","","","","","","","","","","","",""
"null","audio/beep-329314.mp3","null","audio-keyboard-response","351","2.1.0","422893","J=YES, F=NO","ysxomohya9","2","70","65","75","","","","","","","","","","","","","","","",""
"null","audio/weight1.wav","null","audio-keyboard-response","352","2.1.0","423413","J=YES, F=NO","ysxomohya9","2","70","65","75","","","","","","","","","","","","","","","",""
"568","
          <p id=""word"" style=""font-size: 40px;"">crimsh</p>
          <p style=""font-size: 16px;"">J = YES &nbsp;&nbsp;&nbsp; F = NO</p>
        ","j","html-keyboard-response","353","2.1.0","423982","J=YES, F=NO","ysxomohya9","2","70","65","75","","","","","","","","","crimsh","weight1","pseudoword","pseudoword","f","false","",""
"null","<p style=""font-size: 50px;"">+</p>","null","html-keyboard-response","354","2.1.0","424283","J=YES, F=NO","ysxomohya9","2","70","65","75","","","","","","","","","","","","","","","",""
"null","audio/beep-329314.mp3","null","audio-keyboard-response","355","2.1.0","425813","J=YES, F=NO","ysxomohya9","2","70","65","75","","","","","","","","","","","","","","","",""
"null","audio/sugar1.wav","null","audio-keyboard-response","356","2.1.0","426293","J=YES, F=NO","ysxomohya9","2","70","65","75","","","","","","","","","","","","","","","",""
"724","
          <p id=""word"" style=""font-size: 40px;"">glung</p>
          <p style=""font-size: 16px;"">J = YES &nbsp;&nbsp;&nbsp; F = NO</p>
        ","f","html-keyboard-response","357","2.1.0","427018","J=YES, F=NO","ysxomohya9","2","70","65","75","","","","","","","","","glung","sugar1","pseudoword","pseudoword","f","true","",""
"null","<p style=""font-size: 50px;"">+</p>","null","html-keyboard-response","358","2.1.0","427333","J=YES, F=NO","ysxomohya9","2","70","65","75","","","","","","","","","","","","","","","",""
"null","audio/beep-329314.mp3","null","audio-keyboard-response","359","2.1.0","428873","J=YES, F=NO","ysxomohya9","2","70","65","75","","","","","","","","","","","","","","","",""
"null","audio/ground.wav","null","audio-keyboard-response","360","2.1.0","429513","J=YES, F=NO","ysxomohya9","2","70","65","75","","","","","","","","","","","","","","","",""
"501","
          <p id=""word"" style=""font-size: 40px;"">touch</p>
          <p style=""font-size: 16px;"">J = YES &nbsp;&nbsp;&nbsp; F = NO</p>
        ","j","html-keyboard-response","361","2.1.0","430014","J=YES, F=NO","ysxomohya9","2","70","65","75","","","","","","","","","touch","ground","literal","experimental","j","true","",""
"835","<p>Excellent! You have finished block 3 of 8.</p>
                     <p>Feel free to take a 30 second break.</p>
                     <p>Press any key when you're ready to continue.</p>"," ","html-keyboard-response","362","2.1.0","430849","J=YES, F=NO","ysxomohya9","2","70","65","75","","","","","","","","","","","","","","","",""
"479","<p>Starting main block 4 of 8. Press any key to continue.</p>"," ","html-keyboard-response","363","2.1.0","431329","J=YES, F=NO","ysxomohya9","2","70","65","75","","","","","","","","","","","","","","","",""
"null","<p style=""font-size: 50px;"">+</p>","null","html-keyboard-response","364","2.1.0","431630","J=YES, F=NO","ysxomohya9","2","70","65","75","","","","","","","","","","","","","","","",""
"null","audio/beep-329314.mp3","null","audio-keyboard-response","365","2.1.0","433153","J=YES, F=NO","ysxomohya9","2","70","65","75","","","","","","","","","","","","","","","",""
"null","audio/client1.wav","null","audio-keyboard-response","366","2.1.0","433853","J=YES, F=NO","ysxomohya9","2","70","65","75","","","","","","","","","","","","","","","",""
"568","
          <p id=""word"" style=""font-size: 40px;"">land</p>
          <p style=""font-size: 16px;"">J = YES &nbsp;&nbsp;&nbsp; F = NO</p>
        ","j","html-keyboard-response","367","2.1.0","434421","J=YES, F=NO","ysxomohya9","2","70","65","75","","","","","","","","","land","client1","metaphor","experimental","j","true","",""
"null","<p style=""font-size: 50px;"">+</p>","null","html-keyboard-response","368","2.1.0","434732","J=YES, F=NO","ysxomohya9","2","70","65","75","","","","","","","","","","","","","","","",""
"null","audio/beep-329314.mp3","null","audio-keyboard-response","369","2.1.0","436273","J=YES, F=NO","ysxomohya9","2","70","65","75","","","","","","","","","","","","","","","",""
"null","audio/dome.wav","null","audio-keyboard-response","370","2.1.0","436693","J=YES, F=NO","ysxomohya9","2","70","65","75","","","","","","","","","","","","","","","",""
"476","
          <p id=""word"" style=""font-size: 40px;"">feed</p>
          <p style=""font-size: 16px;"">J = YES &nbsp;&nbsp;&nbsp; F = NO</p>
        ","j","html-keyboard-response","371","2.1.0","437170","J=YES, F=NO","ysxomohya9","2","70","65","75","","","","","","","","","feed","dome","unrelated","experimental","j","true","",""
"null","<p style=""font-size: 50px;"">+</p>","null","html-keyboard-response","372","2.1.0","437482","J=YES, F=NO","ysxomohya9","2","70","65","75","","","","","","","","","","","","","","","",""
"null","audio/beep-329314.mp3","null","audio-keyboard-response","373","2.1.0","439013","J=YES, F=NO","ysxomohya9","2","70","65","75","","","","","","","","","","","","","","","",""
"null","audio/effort.wav","null","audio-keyboard-response","374","2.1.0","439593","J=YES, F=NO","ysxomohya9","2","70","65","75","","","","","","","","","","","","","","","",""
"844","
          <p id=""word"" style=""font-size: 40px;"">whonk</p>
          <p style=""font-size: 16px;"">J = YES &nbsp;&nbsp;&nbsp; F = NO</p>
        ","j","html-keyboard-response","375","2.1.0","440438","J=YES, F=NO","ysxomohya9","2","70","65","75","","","","","","","","","whonk","effort","pseudoword","pseudoword","f","false","",""
"null","<p style=""font-size: 50px;"">+</p>","null","html-keyboard-response","376","2.1.0","440749","J=YES, F=NO","ysxomohya9","2","70","65","75","","","","","","","","","","","","","","","",""
"null","audio/beep-329314.mp3","null","audio-keyboard-response","377","2.1.0","442273","J=YES, F=NO","ysxomohya9","2","70","65","75","","","","","","","","","","","","","","","",""
"null","audio/ankle1.wav","null","audio-keyboard-response","378","2.1.0","442793","J=YES, F=NO","ysxomohya9","2","70","65","75","","","","","","","","","","","","","","","",""
"609","
          <p id=""word"" style=""font-size: 40px;"">hurt</p>
          <p style=""font-size: 16px;"">J = YES &nbsp;&nbsp;&nbsp; F = NO</p>
        ","j","html-keyboard-response","379","2.1.0","443402","J=YES, F=NO","ysxomohya9","2","70","65","75","","","","","","","","","hurt","ankle1","literal","experimental","j","true","",""
"null","<p style=""font-size: 50px;"">+</p>","null","html-keyboard-response","380","2.1.0","443718","J=YES, F=NO","ysxomohya9","2","70","65","75","","","","","","","","","","","","","","","",""
"null","audio/beep-329314.mp3","null","audio-keyboard-response","381","2.1.0","445253","J=YES, F=NO","ysxomohya9","2","70","65","75","","","","","","","","","","","","","","","",""
"null","audio/belief.wav","null","audio-keyboard-response","382","2.1.0","445873","J=YES, F=NO","ysxomohya9","2","70","65","75","","","","","","","","","","","","","","","",""
"456","
          <p id=""word"" style=""font-size: 40px;"">share</p>
          <p style=""font-size: 16px;"">J = YES &nbsp;&nbsp;&nbsp; F = NO</p>
        ","j","html-keyboard-response","383","2.1.0","446330","J=YES, F=NO","ysxomohya9","2","70","65","75","","","","","","","","","share","belief","metaphor","experimental","j","true","",""
"null","<p style=""font-size: 50px;"">+</p>","null","html-keyboard-response","384","2.1.0","446638","J=YES, F=NO","ysxomohya9","2","70","65","75","","","","","","","","","","","","","","","",""
"null","audio/beep-329314.mp3","null","audio-keyboard-response","385","2.1.0","448173","J=YES, F=NO","ysxomohya9","2","70","65","75","","","","","","","","","","","","","","","",""
"null","audio/cave1.wav","null","audio-keyboard-response","386","2.1.0","448713","J=YES, F=NO","ysxomohya9","2","70","65","75","","","","","","","","","","","","","","","",""
"820","
          <p id=""word"" style=""font-size: 40px;"">blacket</p>
          <p style=""font-size: 16px;"">J = YES &nbsp;&nbsp;&nbsp; F = NO</p>
        ","j","html-keyboard-response","387","2.1.0","449534","J=YES, F=NO","ysxomohya9","2","70","65","75","","","","","","","","","blacket","cave1","pseudoword","pseudoword","f","false","",""
"null","<p style=""font-size: 50px;"">+</p>","null","html-keyboard-response","388","2.1.0","449837","J=YES, F=NO","ysxomohya9","2","70","65","75","","","","","","","","","","","","","","","",""
"null","audio/beep-329314.mp3","null","audio-keyboard-response","389","2.1.0","451373","J=YES, F=NO","ysxomohya9","2","70","65","75","","","","","","","","","","","","","","","",""
"null","audio/hawk1.wav","null","audio-keyboard-response","390","2.1.0","451953","J=YES, F=NO","ysxomohya9","2","70","65","75","","","","","","","","","","","","","","","",""
"596","
          <p id=""word"" style=""font-size: 40px;"">wipe</p>
          <p style=""font-size: 16px;"">J = YES &nbsp;&nbsp;&nbsp; F = NO</p>
        ","j","html-keyboard-response","391","2.1.0","452549","J=YES, F=NO","ysxomohya9","2","70","65","75","","","","","","","","","wipe","hawk1","unrelated","experimental","j","true","",""
