"rt","stimulus","response","trial_type","trial_index","plugin_version","time_elapsed","response_mapping","subject_id","list_index","lextale_score","lextale_word_score","lextale_nonword_score","success","timeout","failed_images","failed_audio","failed_video","task","isWord","isDummy","target","prime","prime_type","stimulus_type","correct_response","correct","section","question_order"
"10146","
    <div style=""max-width: 800px; margin: auto; text-align: left;"">
      <h2>STANFORD UNIVERSITY</h2>
      <h3>Research Information Sheet</h3>
      <p><strong>Protocol Director:</strong> Robert Hawkins<br>
      <strong>Protocol Title:</strong> Communication and social cognition in natural audiovisual contexts<br>
      <strong>IRB#:</strong> 77226</p>

      <p><strong>DESCRIPTION:</strong> You are invited to participate in a research study about language and communication. The purpose of the research is to understand how you interact and communicate with other people in naturalistic settings as a fluent English speaker. This research will be conducted through the Prolific platform, including participants from the US, UK, and Canada. If you decide to participate in this research, you will play a communication game in a group with one or more partners.</p>

      <p><strong>TIME INVOLVEMENT:</strong> The task will last the amount of time advertised on Prolific. You are free to withdraw from the study at any time.</p>

      <p><strong>RISKS AND BENEFITS:</strong> You may become frustrated if your partner gets distracted, or experience discomfort if other participants in your group send text that is inappropriate for the task. We ask you to please be respectful of other participants you might be interacting with to mitigate these risks. You may also experience discomfort when being asked to discuss or challenge emotionally salient political beliefs. Study data will be stored securely, in compliance with Stanford University standards, minimizing the risk of confidentiality breach. This study advances our scientific understanding of how people communicate and collaborate in naturalistic settings. This study may lead to further insights about what can go wrong in teamwork, suggest potential interventions to overcome these barriers, and help to develop assistive technologies that collaborate with human partners. We cannot and do not guarantee or promise that you will receive any benefits from this study.</p>

      <p><strong>PAYMENTS:</strong> You will receive payment in the amount advertised on Prolific. If you do not complete this study, you will receive prorated payment based on the time that you have spent. Additionally, you may be eligible for bonus payments as described in the instructions.</p>

      <p><strong>PARTICIPANT’S RIGHTS:</strong> If you have read this form and have decided to participate in this project, please understand your participation is voluntary and you have the right to withdraw your consent or discontinue participation at any time without penalty or loss of benefits to which you are otherwise entitled. The alternative is not to participate. You have the right to refuse to answer particular questions. The results of this research study may be presented at scientific or professional meetings or published in scientific journals. Your individual privacy will be maintained in all published and written data resulting from the study. In accordance with scientific norms, the data from this study may be used or shared with other researchers for future research (after removing personally identifying information) without additional consent from you.</p>

      <p><strong>CONTACT INFORMATION:</strong><br>
      Questions: If you have any questions, concerns or complaints about this research, its procedures, risks and benefits, contact the Protocol Director, Robert Hawkins (<a href=""mailto:rdhawkins@stanford.edu"">rdhawkins@stanford.edu</a>, 217-549-6923).<br>
      Independent Contact: If you are not satisfied with how this study is being conducted, or if you have any concerns, complaints, or general questions about the research or your rights as a participant, please contact the Stanford Institutional Review Board (IRB) to speak to someone independent of the research team at 650-723-2480 or toll free at 1-866-680-2906, or email at <a href=""mailto:irbnon-med@stanford.edu"">irbnon-med@stanford.edu</a>. You can also write to the Stanford IRB, Stanford University, 1705 El Camino Real, Palo Alto, CA 94306.</p>

      <p><strong>Please save or print a copy of this page for your records.</strong></p>
      <p>If you agree to participate in this research, click ""Continue"" below.</p>
    </div>
  ","0","html-button-response","0","2.1.0","10696","J=YES, F=NO","yum2fr7pol","2","55","75","35","","","","","","","","","","","","","","","",""
"33596","
    <div style=""max-width: 800px; margin: auto; text-align: left;"">
      <h2>Welcome!</h2>
      <p>Thank you for participating in this study. The experiment consists of three parts:</p>
      <ol>
        <li>An English vocabulary test</li>
        <li>A main task in which you will hear and see words, and decide whether the written word is a real English word</li>
        <li>A brief survey about your background</li>
      </ol>
      <p>Each part will be introduced before it begins.</p>
      <p>Please make sure you are in a quiet environment and can hear audio clearly for the final task.</p>
      <p style=""margin-top: 2em;"">Press any key to begin.</p>
    </div>
  ","f","html-keyboard-response","1","2.1.0","44620","J=YES, F=NO","yum2fr7pol","2","55","75","35","","","","","","","","","","","","","","","",""
"","","","preload","2","2.1.0","54530","J=YES, F=NO","yum2fr7pol","2","55","75","35","true","false","[]","[]","[]","","","","","","","","","","",""
"11726","
    <div style=""max-width: 800px; margin: auto; text-align: left;"">
      <h2>Part 1: Vocabulary Test</h2>
      <p>You will now complete the first part of the study: a short English vocabulary test.</p>
      <p>This test is called <strong>LexTALE</strong> and helps us get a general sense of your English proficiency.</p>
      <p style=""margin-top: 2em;"">Press any key to continue.</p>
    </div>
  ","f","html-keyboard-response","3","2.1.0","66266","J=YES, F=NO","yum2fr7pol","2","55","75","35","","","","","","","","","","","","","","","",""
"9855","
    <div style=""max-width: 800px; margin: auto; text-align: left;"">
      <h2>LexTALE Vocabulary Test</h2>
      <p>In this test, you will see a series of letter strings—one at a time.</p>
      <p>Your task is to decide whether each string is a real English word.</p>
      <p><strong>Key responses:</strong></p>
      <ul>
        <li><strong>J</strong> = YES (real English word)</li>
        <li><strong>F</strong> = NO (not a real English word)</li>
      </ul>
      <p>There is no time limit, but please try to be accurate.</p>
      <p style=""margin-top: 2em;"">Press any key to begin.</p>
    </div>
  ","f","html-keyboard-response","4","2.1.0","76123","J=YES, F=NO","yum2fr7pol","2","55","75","35","","","","","","","","","","","","","","","",""
"6643","
  <p style=""font-size: 40px;"">platery</p>
  <p style=""font-size: 16px;"">J = YES &nbsp;&nbsp;&nbsp; F = NO</p>
","j","html-keyboard-response","5","2.1.0","82868","J=YES, F=NO","yum2fr7pol","2","55","75","35","","","","","","lextale","false","true","","","","","","","",""
"3025","
  <p style=""font-size: 40px;"">denial</p>
  <p style=""font-size: 16px;"">J = YES &nbsp;&nbsp;&nbsp; F = NO</p>
","j","html-keyboard-response","6","2.1.0","85894","J=YES, F=NO","yum2fr7pol","2","55","75","35","","","","","","lextale","true","true","","","","","","","",""
"3053","
  <p style=""font-size: 40px;"">marrit</p>
  <p style=""font-size: 16px;"">J = YES &nbsp;&nbsp;&nbsp; F = NO</p>
","j","html-keyboard-response","7","2.1.0","88949","J=YES, F=NO","yum2fr7pol","2","55","75","35","","","","","","lextale","false","true","","","","","","","",""
"6208","
  <p style=""font-size: 40px;"">bottle</p>
  <p style=""font-size: 16px;"">J = YES &nbsp;&nbsp;&nbsp; F = NO</p>
","f","html-keyboard-response","8","2.1.0","95159","J=YES, F=NO","yum2fr7pol","2","55","75","35","","","","","","lextale","true","false","","","","","","","",""
"5972","
  <p style=""font-size: 40px;"">birst</p>
  <p style=""font-size: 16px;"">J = YES &nbsp;&nbsp;&nbsp; F = NO</p>
","j","html-keyboard-response","9","2.1.0","101132","J=YES, F=NO","yum2fr7pol","2","55","75","35","","","","","","lextale","false","false","","","","","","","",""
"4399","
  <p style=""font-size: 40px;"">envy</p>
  <p style=""font-size: 16px;"">J = YES &nbsp;&nbsp;&nbsp; F = NO</p>
","f","html-keyboard-response","10","2.1.0","105532","J=YES, F=NO","yum2fr7pol","2","55","75","35","","","","","","lextale","true","false","","","","","","","",""
"6601","
  <p style=""font-size: 40px;"">brang</p>
  <p style=""font-size: 16px;"">J = YES &nbsp;&nbsp;&nbsp; F = NO</p>
","f","html-keyboard-response","11","2.1.0","112135","J=YES, F=NO","yum2fr7pol","2","55","75","35","","","","","","lextale","false","false","","","","","","","",""
"7792","
  <p style=""font-size: 40px;"">huge</p>
  <p style=""font-size: 16px;"">J = YES &nbsp;&nbsp;&nbsp; F = NO</p>
","j","html-keyboard-response","12","2.1.0","119929","J=YES, F=NO","yum2fr7pol","2","55","75","35","","","","","","lextale","true","false","","","","","","","",""
"10984","
  <p style=""font-size: 40px;"">plove</p>
  <p style=""font-size: 16px;"">J = YES &nbsp;&nbsp;&nbsp; F = NO</p>
","j","html-keyboard-response","13","2.1.0","130915","J=YES, F=NO","yum2fr7pol","2","55","75","35","","","","","","lextale","false","false","","","","","","","",""
"2802","
  <p style=""font-size: 40px;"">border</p>
  <p style=""font-size: 16px;"">J = YES &nbsp;&nbsp;&nbsp; F = NO</p>
","j","html-keyboard-response","14","2.1.0","133719","J=YES, F=NO","yum2fr7pol","2","55","75","35","","","","","","lextale","true","false","","","","","","","",""
"6879","
  <p style=""font-size: 40px;"">flimsy</p>
  <p style=""font-size: 16px;"">J = YES &nbsp;&nbsp;&nbsp; F = NO</p>
","f","html-keyboard-response","15","2.1.0","140600","J=YES, F=NO","yum2fr7pol","2","55","75","35","","","","","","lextale","true","false","","","","","","","",""
"2221","
  <p style=""font-size: 40px;"">drain</p>
  <p style=""font-size: 16px;"">J = YES &nbsp;&nbsp;&nbsp; F = NO</p>
","j","html-keyboard-response","16","2.1.0","142822","J=YES, F=NO","yum2fr7pol","2","55","75","35","","","","","","lextale","true","false","","","","","","","",""
"11853","
  <p style=""font-size: 40px;"">twindle</p>
  <p style=""font-size: 16px;"">J = YES &nbsp;&nbsp;&nbsp; F = NO</p>
","f","html-keyboard-response","17","2.1.0","154676","J=YES, F=NO","yum2fr7pol","2","55","75","35","","","","","","lextale","false","false","","","","","","","",""
"5666","
  <p style=""font-size: 40px;"">propose</p>
  <p style=""font-size: 16px;"">J = YES &nbsp;&nbsp;&nbsp; F = NO</p>
","j","html-keyboard-response","18","2.1.0","160343","J=YES, F=NO","yum2fr7pol","2","55","75","35","","","","","","lextale","true","false","","","","","","","",""
"3302","
  <p style=""font-size: 40px;"">forlay</p>
  <p style=""font-size: 16px;"">J = YES &nbsp;&nbsp;&nbsp; F = NO</p>
","j","html-keyboard-response","19","2.1.0","163647","J=YES, F=NO","yum2fr7pol","2","55","75","35","","","","","","lextale","false","false","","","","","","","",""
"2873","
  <p style=""font-size: 40px;"">tenant</p>
  <p style=""font-size: 16px;"">J = YES &nbsp;&nbsp;&nbsp; F = NO</p>
","j","html-keyboard-response","20","2.1.0","166520","J=YES, F=NO","yum2fr7pol","2","55","75","35","","","","","","lextale","true","false","","","","","","","",""
"2677","
  <p style=""font-size: 40px;"">strain</p>
  <p style=""font-size: 16px;"">J = YES &nbsp;&nbsp;&nbsp; F = NO</p>
","j","html-keyboard-response","21","2.1.0","169199","J=YES, F=NO","yum2fr7pol","2","55","75","35","","","","","","lextale","true","false","","","","","","","",""
"3672","
  <p style=""font-size: 40px;"">holster</p>
  <p style=""font-size: 16px;"">J = YES &nbsp;&nbsp;&nbsp; F = NO</p>
","f","html-keyboard-response","22","2.1.0","172873","J=YES, F=NO","yum2fr7pol","2","55","75","35","","","","","","lextale","true","false","","","","","","","",""
"2766","
  <p style=""font-size: 40px;"">hinder</p>
  <p style=""font-size: 16px;"">J = YES &nbsp;&nbsp;&nbsp; F = NO</p>
","j","html-keyboard-response","23","2.1.0","175641","J=YES, F=NO","yum2fr7pol","2","55","75","35","","","","","","lextale","true","false","","","","","","","",""
"2455","
  <p style=""font-size: 40px;"">swindle</p>
  <p style=""font-size: 16px;"">J = YES &nbsp;&nbsp;&nbsp; F = NO</p>
","j","html-keyboard-response","24","2.1.0","178098","J=YES, F=NO","yum2fr7pol","2","55","75","35","","","","","","lextale","true","false","","","","","","","",""
"2344","
  <p style=""font-size: 40px;"">nuder</p>
  <p style=""font-size: 16px;"">J = YES &nbsp;&nbsp;&nbsp; F = NO</p>
","j","html-keyboard-response","25","2.1.0","180444","J=YES, F=NO","yum2fr7pol","2","55","75","35","","","","","","lextale","false","false","","","","","","","",""
"2466","
  <p style=""font-size: 40px;"">pillow</p>
  <p style=""font-size: 16px;"">J = YES &nbsp;&nbsp;&nbsp; F = NO</p>
","j","html-keyboard-response","26","2.1.0","182912","J=YES, F=NO","yum2fr7pol","2","55","75","35","","","","","","lextale","true","false","","","","","","","",""
"2398","
  <p style=""font-size: 40px;"">shumble</p>
  <p style=""font-size: 16px;"">J = YES &nbsp;&nbsp;&nbsp; F = NO</p>
","j","html-keyboard-response","27","2.1.0","185311","J=YES, F=NO","yum2fr7pol","2","55","75","35","","","","","","lextale","false","false","","","","","","","",""
"5842","
  <p style=""font-size: 40px;"">thirst</p>
  <p style=""font-size: 16px;"">J = YES &nbsp;&nbsp;&nbsp; F = NO</p>
","j","html-keyboard-response","28","2.1.0","191155","J=YES, F=NO","yum2fr7pol","2","55","75","35","","","","","","lextale","true","false","","","","","","","",""
"2532","
  <p style=""font-size: 40px;"">unsail</p>
  <p style=""font-size: 16px;"">J = YES &nbsp;&nbsp;&nbsp; F = NO</p>
","j","html-keyboard-response","29","2.1.0","193689","J=YES, F=NO","yum2fr7pol","2","55","75","35","","","","","","lextale","false","false","","","","","","","",""
"2497","
  <p style=""font-size: 40px;"">rifle</p>
  <p style=""font-size: 16px;"">J = YES &nbsp;&nbsp;&nbsp; F = NO</p>
","j","html-keyboard-response","30","2.1.0","196186","J=YES, F=NO","yum2fr7pol","2","55","75","35","","","","","","lextale","true","false","","","","","","","",""
"2697","
  <p style=""font-size: 40px;"">mush</p>
  <p style=""font-size: 16px;"">J = YES &nbsp;&nbsp;&nbsp; F = NO</p>
","j","html-keyboard-response","31","2.1.0","198885","J=YES, F=NO","yum2fr7pol","2","55","75","35","","","","","","lextale","false","false","","","","","","","",""
"2018","
  <p style=""font-size: 40px;"">drench</p>
  <p style=""font-size: 16px;"">J = YES &nbsp;&nbsp;&nbsp; F = NO</p>
","j","html-keyboard-response","32","2.1.0","200910","J=YES, F=NO","yum2fr7pol","2","55","75","35","","","","","","lextale","true","false","","","","","","","",""
"2497","
  <p style=""font-size: 40px;"">snirt</p>
  <p style=""font-size: 16px;"">J = YES &nbsp;&nbsp;&nbsp; F = NO</p>
","j","html-keyboard-response","33","2.1.0","203409","J=YES, F=NO","yum2fr7pol","2","55","75","35","","","","","","lextale","false","false","","","","","","","",""
"2539","
  <p style=""font-size: 40px;"">bitter</p>
  <p style=""font-size: 16px;"">J = YES &nbsp;&nbsp;&nbsp; F = NO</p>
","j","html-keyboard-response","34","2.1.0","205950","J=YES, F=NO","yum2fr7pol","2","55","75","35","","","","","","lextale","true","false","","","","","","","",""
"3769","
  <p style=""font-size: 40px;"">pliff</p>
  <p style=""font-size: 16px;"">J = YES &nbsp;&nbsp;&nbsp; F = NO</p>
","f","html-keyboard-response","35","2.1.0","209721","J=YES, F=NO","yum2fr7pol","2","55","75","35","","","","","","lextale","false","false","","","","","","","",""
"2641","
  <p style=""font-size: 40px;"">tablet</p>
  <p style=""font-size: 16px;"">J = YES &nbsp;&nbsp;&nbsp; F = NO</p>
","j","html-keyboard-response","36","2.1.0","212364","J=YES, F=NO","yum2fr7pol","2","55","75","35","","","","","","lextale","true","false","","","","","","","",""
"2218","
  <p style=""font-size: 40px;"">glimmer</p>
  <p style=""font-size: 16px;"">J = YES &nbsp;&nbsp;&nbsp; F = NO</p>
","j","html-keyboard-response","37","2.1.0","214585","J=YES, F=NO","yum2fr7pol","2","55","75","35","","","","","","lextale","true","false","","","","","","","",""
"2763","
  <p style=""font-size: 40px;"">slink</p>
  <p style=""font-size: 16px;"">J = YES &nbsp;&nbsp;&nbsp; F = NO</p>
","j","html-keyboard-response","38","2.1.0","217350","J=YES, F=NO","yum2fr7pol","2","55","75","35","","","","","","lextale","true","false","","","","","","","",""
"2347","
  <p style=""font-size: 40px;"">clever</p>
  <p style=""font-size: 16px;"">J = YES &nbsp;&nbsp;&nbsp; F = NO</p>
","j","html-keyboard-response","39","2.1.0","219698","J=YES, F=NO","yum2fr7pol","2","55","75","35","","","","","","lextale","true","false","","","","","","","",""
"3835","
  <p style=""font-size: 40px;"">grum</p>
  <p style=""font-size: 16px;"">J = YES &nbsp;&nbsp;&nbsp; F = NO</p>
","f","html-keyboard-response","40","2.1.0","223536","J=YES, F=NO","yum2fr7pol","2","55","75","35","","","","","","lextale","false","false","","","","","","","",""
"2559","
  <p style=""font-size: 40px;"">string</p>
  <p style=""font-size: 16px;"">J = YES &nbsp;&nbsp;&nbsp; F = NO</p>
","j","html-keyboard-response","41","2.1.0","226096","J=YES, F=NO","yum2fr7pol","2","55","75","35","","","","","","lextale","true","false","","","","","","","",""
"3911","
  <p style=""font-size: 40px;"">plim</p>
  <p style=""font-size: 16px;"">J = YES &nbsp;&nbsp;&nbsp; F = NO</p>
","f","html-keyboard-response","42","2.1.0","230009","J=YES, F=NO","yum2fr7pol","2","55","75","35","","","","","","lextale","false","false","","","","","","","",""
"1441","
  <p style=""font-size: 40px;"">cable</p>
  <p style=""font-size: 16px;"">J = YES &nbsp;&nbsp;&nbsp; F = NO</p>
","j","html-keyboard-response","43","2.1.0","231451","J=YES, F=NO","yum2fr7pol","2","55","75","35","","","","","","lextale","true","false","","","","","","","",""
"2202","
  <p style=""font-size: 40px;"">shrivel</p>
  <p style=""font-size: 16px;"">J = YES &nbsp;&nbsp;&nbsp; F = NO</p>
","j","html-keyboard-response","44","2.1.0","233655","J=YES, F=NO","yum2fr7pol","2","55","75","35","","","","","","lextale","true","false","","","","","","","",""
"2114","
  <p style=""font-size: 40px;"">tarnish</p>
  <p style=""font-size: 16px;"">J = YES &nbsp;&nbsp;&nbsp; F = NO</p>
","j","html-keyboard-response","45","2.1.0","235771","J=YES, F=NO","yum2fr7pol","2","55","75","35","","","","","","lextale","true","false","","","","","","","",""
"2158","
  <p style=""font-size: 40px;"">blim</p>
  <p style=""font-size: 16px;"">J = YES &nbsp;&nbsp;&nbsp; F = NO</p>
","j","html-keyboard-response","46","2.1.0","237930","J=YES, F=NO","yum2fr7pol","2","55","75","35","","","","","","lextale","false","false","","","","","","","",""
"2718","
  <p style=""font-size: 40px;"">stifle</p>
  <p style=""font-size: 16px;"">J = YES &nbsp;&nbsp;&nbsp; F = NO</p>
","j","html-keyboard-response","47","2.1.0","240650","J=YES, F=NO","yum2fr7pol","2","55","75","35","","","","","","lextale","true","false","","","","","","","",""
"3370","
  <p style=""font-size: 40px;"">bint</p>
  <p style=""font-size: 16px;"">J = YES &nbsp;&nbsp;&nbsp; F = NO</p>
","f","html-keyboard-response","48","2.1.0","244021","J=YES, F=NO","yum2fr7pol","2","55","75","35","","","","","","lextale","false","false","","","","","","","",""
"1366","
  <p style=""font-size: 40px;"">purple</p>
  <p style=""font-size: 16px;"">J = YES &nbsp;&nbsp;&nbsp; F = NO</p>
","j","html-keyboard-response","49","2.1.0","245389","J=YES, F=NO","yum2fr7pol","2","55","75","35","","","","","","lextale","true","false","","","","","","","",""
"2287","
  <p style=""font-size: 40px;"">wriggle</p>
  <p style=""font-size: 16px;"">J = YES &nbsp;&nbsp;&nbsp; F = NO</p>
","j","html-keyboard-response","50","2.1.0","247677","J=YES, F=NO","yum2fr7pol","2","55","75","35","","","","","","lextale","true","false","","","","","","","",""
"2459","
  <p style=""font-size: 40px;"">mangle</p>
  <p style=""font-size: 16px;"">J = YES &nbsp;&nbsp;&nbsp; F = NO</p>
","j","html-keyboard-response","51","2.1.0","250138","J=YES, F=NO","yum2fr7pol","2","55","75","35","","","","","","lextale","true","false","","","","","","","",""
"4377","
  <p style=""font-size: 40px;"">shramp</p>
  <p style=""font-size: 16px;"">J = YES &nbsp;&nbsp;&nbsp; F = NO</p>
","j","html-keyboard-response","52","2.1.0","254516","J=YES, F=NO","yum2fr7pol","2","55","75","35","","","","","","lextale","false","false","","","","","","","",""
"1254","
  <p style=""font-size: 40px;"">flirt</p>
  <p style=""font-size: 16px;"">J = YES &nbsp;&nbsp;&nbsp; F = NO</p>
","j","html-keyboard-response","53","2.1.0","255771","J=YES, F=NO","yum2fr7pol","2","55","75","35","","","","","","lextale","true","false","","","","","","","",""
"4246","
  <p style=""font-size: 40px;"">frip</p>
  <p style=""font-size: 16px;"">J = YES &nbsp;&nbsp;&nbsp; F = NO</p>
","f","html-keyboard-response","54","2.1.0","260018","J=YES, F=NO","yum2fr7pol","2","55","75","35","","","","","","lextale","false","false","","","","","","","",""
"2905","
  <p style=""font-size: 40px;"">tangle</p>
  <p style=""font-size: 16px;"">J = YES &nbsp;&nbsp;&nbsp; F = NO</p>
","j","html-keyboard-response","55","2.1.0","262924","J=YES, F=NO","yum2fr7pol","2","55","75","35","","","","","","lextale","true","false","","","","","","","",""
"4828","
  <p style=""font-size: 40px;"">crumble</p>
  <p style=""font-size: 16px;"">J = YES &nbsp;&nbsp;&nbsp; F = NO</p>
","j","html-keyboard-response","56","2.1.0","267754","J=YES, F=NO","yum2fr7pol","2","55","75","35","","","","","","lextale","true","false","","","","","","","",""
"2444","
  <p style=""font-size: 40px;"">wrinkle</p>
  <p style=""font-size: 16px;"">J = YES &nbsp;&nbsp;&nbsp; F = NO</p>
","j","html-keyboard-response","57","2.1.0","270200","J=YES, F=NO","yum2fr7pol","2","55","75","35","","","","","","lextale","true","false","","","","","","","",""
"2496","
  <p style=""font-size: 40px;"">slumb</p>
  <p style=""font-size: 16px;"">J = YES &nbsp;&nbsp;&nbsp; F = NO</p>
","j","html-keyboard-response","58","2.1.0","272698","J=YES, F=NO","yum2fr7pol","2","55","75","35","","","","","","lextale","false","false","","","","","","","",""
"2002","
  <p style=""font-size: 40px;"">jungle</p>
  <p style=""font-size: 16px;"">J = YES &nbsp;&nbsp;&nbsp; F = NO</p>
","j","html-keyboard-response","59","2.1.0","274701","J=YES, F=NO","yum2fr7pol","2","55","75","35","","","","","","lextale","true","false","","","","","","","",""
"2195","
  <p style=""font-size: 40px;"">frolick</p>
  <p style=""font-size: 16px;"">J = YES &nbsp;&nbsp;&nbsp; F = NO</p>
","j","html-keyboard-response","60","2.1.0","276897","J=YES, F=NO","yum2fr7pol","2","55","75","35","","","","","","lextale","false","false","","","","","","","",""
"9064","
      <h2>LexTALE Test Completed</h2>
      <p>Your LexTALE vocabulary score is: <strong>55%</strong></p>
      <p>Press any key to continue.</p>
    ","j","html-keyboard-response","61","2.1.0","285964","J=YES, F=NO","yum2fr7pol","2","55","75","35","","","","","","","","","","","","","","","",""
"5999","
    <div style=""max-width: 800px; margin: auto; text-align: left;"">
      <h2>Break Time</h2>
      <p>You have completed the first part of the study.</p>
      <p>You may take a short <strong>30-second break</strong> before continuing.</p>
      <p>When you’re ready, press any key to continue to the final task.</p>
    </div>
  ","j","html-keyboard-response","62","2.1.0","291964","J=YES, F=NO","yum2fr7pol","2","55","75","35","","","","","","","","","","","","","","","",""
"14935","
    <div style=""max-width: 800px; margin: auto; text-align: left;"">
      <h2>Part 2: Lexical Decision Task</h2>
      <p>You will now begin the second part of the study.</p>
      <p>Each trial will follow this sequence:</p>
      <ul>
        <li>A fixation cross (+) appears at the center of the screen.</li>
        <li>You will hear a short beep followed by a spoken word.</li>
        <li>A written word will appear briefly on the screen.</li>
      </ul>
      <p>Your task is to judge whether the <strong>written word</strong> is a real English word.</p>
      <p style=""margin-top: 1em;""><strong>Key responses:</strong></p>
      <ul>
        <li><strong>J</strong> = YES (real English word)</li>
        <li><strong>F</strong> = NO (not a real English word)</li>
      </ul>
      <p>Please respond as quickly and accurately as you can.</p>
      <p style=""margin-top: 2em;"">Press any key to continue.</p>
    </div>
  ","j","html-keyboard-response","63","2.1.0","306901","J=YES, F=NO","yum2fr7pol","2","55","75","35","","","","","","","","","","","","","","","",""
"2122","
    <div style=""max-width: 800px; margin: auto; text-align: left;"">
      <h2>Before You Begin</h2>
      <p>Make sure your sound is turned on.</p>
      <p>You will hear audio during each trial, but your decision should be based only on the <strong>written word</strong> you see on the screen.</p>
      <p><strong>Reminder:</strong></p>
      <ul>
        <li><strong>J</strong> = YES (real English word)</li>
        <li><strong>F</strong> = NO (not a real English word)</li>
      </ul>
      <p style=""margin-top: 2em;"">Press any key when you are ready to begin.</p>
    </div>
  ","j","html-keyboard-response","64","2.1.0","309024","J=YES, F=NO","yum2fr7pol","2","55","75","35","","","","","","","","","","","","","","","",""
"1397","
    <div style=""max-width: 800px; margin: auto; text-align: left;"">
      <h2>Part 2: Practice Trials</h2>
      <p>You will now complete a few <strong>practice trials</strong> to get familiar with the task.</p>
      <p>These trials are <strong>not scored</strong> and are only to help you get used to the format.</p>
      <p style=""margin-top: 2em;"">Press any key to begin.</p>
    </div>
  ","j","html-keyboard-response","65","2.1.0","310423","J=YES, F=NO","yum2fr7pol","2","55","75","35","","","","","","","","","","","","","","","",""
"2772","<p>Starting practice block 1 of 2. Press any key to continue.</p>","j","html-keyboard-response","66","2.1.0","313196","J=YES, F=NO","yum2fr7pol","2","55","75","35","","","","","","","","","","","","","","","",""
"null","<p style=""font-size: 50px;"">+</p>","null","html-keyboard-response","67","2.1.0","313498","J=YES, F=NO","yum2fr7pol","2","55","75","35","","","","","","","","","","","","","","","",""
"null","audio/beep-329314.mp3","null","audio-keyboard-response","68","2.1.0","315930","J=YES, F=NO","yum2fr7pol","2","55","75","35","","","","","","","","","","","","","","","",""
"null","audio/bishop1.wav","null","audio-keyboard-response","69","2.1.0","316705","J=YES, F=NO","yum2fr7pol","2","55","75","35","","","","","","","","","","","","","","","",""
"null","
          <p id=""word"" style=""font-size: 40px;"">play</p>
          <p style=""font-size: 16px;"">J = YES &nbsp;&nbsp;&nbsp; F = NO</p>
        ","null","html-keyboard-response","70","2.1.0","318210","J=YES, F=NO","yum2fr7pol","2","55","75","35","","","","","","","","","play","bishop1","filler","filler","j","false","",""
"null","<p style=""font-size: 50px;"">+</p>","null","html-keyboard-response","71","2.1.0","318513","J=YES, F=NO","yum2fr7pol","2","55","75","35","","","","","","","","","","","","","","","",""
"null","audio/beep-329314.mp3","null","audio-keyboard-response","72","2.1.0","320044","J=YES, F=NO","yum2fr7pol","2","55","75","35","","","","","","","","","","","","","","","",""
"null","audio/novel.wav","null","audio-keyboard-response","73","2.1.0","320823","J=YES, F=NO","yum2fr7pol","2","55","75","35","","","","","","","","","","","","","","","",""
"null","
          <p id=""word"" style=""font-size: 40px;"">type</p>
          <p style=""font-size: 16px;"">J = YES &nbsp;&nbsp;&nbsp; F = NO</p>
        ","null","html-keyboard-response","74","2.1.0","322326","J=YES, F=NO","yum2fr7pol","2","55","75","35","","","","","","","","","type","novel","filler","filler","j","false","",""
"null","<p style=""font-size: 50px;"">+</p>","null","html-keyboard-response","75","2.1.0","322627","J=YES, F=NO","yum2fr7pol","2","55","75","35","","","","","","","","","","","","","","","",""
"null","audio/beep-329314.mp3","null","audio-keyboard-response","76","2.1.0","324163","J=YES, F=NO","yum2fr7pol","2","55","75","35","","","","","","","","","","","","","","","",""
"null","audio/breath.wav","null","audio-keyboard-response","77","2.1.0","324883","J=YES, F=NO","yum2fr7pol","2","55","75","35","","","","","","","","","","","","","","","",""
"1481","
          <p id=""word"" style=""font-size: 40px;"">pack</p>
          <p style=""font-size: 16px;"">J = YES &nbsp;&nbsp;&nbsp; F = NO</p>
        ","j","html-keyboard-response","78","2.1.0","326366","J=YES, F=NO","yum2fr7pol","2","55","75","35","","","","","","","","","pack","breath","filler","filler","j","true","",""
"null","<p style=""font-size: 50px;"">+</p>","null","html-keyboard-response","79","2.1.0","326669","J=YES, F=NO","yum2fr7pol","2","55","75","35","","","","","","","","","","","","","","","",""
"null","audio/beep-329314.mp3","null","audio-keyboard-response","80","2.1.0","328203","J=YES, F=NO","yum2fr7pol","2","55","75","35","","","","","","","","","","","","","","","",""
"null","audio/floor.wav","null","audio-keyboard-response","81","2.1.0","329024","J=YES, F=NO","yum2fr7pol","2","55","75","35","","","","","","","","","","","","","","","",""
"null","
          <p id=""word"" style=""font-size: 40px;"">mop</p>
          <p style=""font-size: 16px;"">J = YES &nbsp;&nbsp;&nbsp; F = NO</p>
        ","null","html-keyboard-response","82","2.1.0","330527","J=YES, F=NO","yum2fr7pol","2","55","75","35","","","","","","","","","mop","floor","filler","filler","j","false","",""
"null","<p style=""font-size: 50px;"">+</p>","null","html-keyboard-response","83","2.1.0","330830","J=YES, F=NO","yum2fr7pol","2","55","75","35","","","","","","","","","","","","","","","",""
"null","audio/beep-329314.mp3","null","audio-keyboard-response","84","2.1.0","332363","J=YES, F=NO","yum2fr7pol","2","55","75","35","","","","","","","","","","","","","","","",""
"null","audio/camera1.wav","null","audio-keyboard-response","85","2.1.0","333083","J=YES, F=NO","yum2fr7pol","2","55","75","35","","","","","","","","","","","","","","","",""
"null","
          <p id=""word"" style=""font-size: 40px;"">stir</p>
          <p style=""font-size: 16px;"">J = YES &nbsp;&nbsp;&nbsp; F = NO</p>
        ","null","html-keyboard-response","86","2.1.0","334587","J=YES, F=NO","yum2fr7pol","2","55","75","35","","","","","","","","","stir","camera1","filler","filler","j","false","",""
"null","<p style=""font-size: 50px;"">+</p>","null","html-keyboard-response","87","2.1.0","334889","J=YES, F=NO","yum2fr7pol","2","55","75","35","","","","","","","","","","","","","","","",""
"null","audio/beep-329314.mp3","null","audio-keyboard-response","88","2.1.0","336425","J=YES, F=NO","yum2fr7pol","2","55","75","35","","","","","","","","","","","","","","","",""
"null","audio/heart1.wav","null","audio-keyboard-response","89","2.1.0","337384","J=YES, F=NO","yum2fr7pol","2","55","75","35","","","","","","","","","","","","","","","",""
"834","
          <p id=""word"" style=""font-size: 40px;"">dralm</p>
          <p style=""font-size: 16px;"">J = YES &nbsp;&nbsp;&nbsp; F = NO</p>
        ","j","html-keyboard-response","90","2.1.0","338220","J=YES, F=NO","yum2fr7pol","2","55","75","35","","","","","","","","","dralm","heart1","pseudoword","pseudoword","f","false","",""
"null","<p style=""font-size: 50px;"">+</p>","null","html-keyboard-response","91","2.1.0","338524","J=YES, F=NO","yum2fr7pol","2","55","75","35","","","","","","","","","","","","","","","",""
"null","audio/beep-329314.mp3","null","audio-keyboard-response","92","2.1.0","340064","J=YES, F=NO","yum2fr7pol","2","55","75","35","","","","","","","","","","","","","","","",""
"null","audio/baby.wav","null","audio-keyboard-response","93","2.1.0","340824","J=YES, F=NO","yum2fr7pol","2","55","75","35","","","","","","","","","","","","","","","",""
"1020","
          <p id=""word"" style=""font-size: 40px;"">lift</p>
          <p style=""font-size: 16px;"">J = YES &nbsp;&nbsp;&nbsp; F = NO</p>
        ","f","html-keyboard-response","94","2.1.0","341846","J=YES, F=NO","yum2fr7pol","2","55","75","35","","","","","","","","","lift","baby","filler","filler","j","false","",""
"null","<p style=""font-size: 50px;"">+</p>","null","html-keyboard-response","95","2.1.0","342148","J=YES, F=NO","yum2fr7pol","2","55","75","35","","","","","","","","","","","","","","","",""
"null","audio/beep-329314.mp3","null","audio-keyboard-response","96","2.1.0","343685","J=YES, F=NO","yum2fr7pol","2","55","75","35","","","","","","","","","","","","","","","",""
"null","audio/birth1.wav","null","audio-keyboard-response","97","2.1.0","344483","J=YES, F=NO","yum2fr7pol","2","55","75","35","","","","","","","","","","","","","","","",""
"476","
          <p id=""word"" style=""font-size: 40px;"">peel</p>
          <p style=""font-size: 16px;"">J = YES &nbsp;&nbsp;&nbsp; F = NO</p>
        ","j","html-keyboard-response","98","2.1.0","344961","J=YES, F=NO","yum2fr7pol","2","55","75","35","","","","","","","","","peel","birth1","filler","filler","j","true","",""
"null","<p style=""font-size: 50px;"">+</p>","null","html-keyboard-response","99","2.1.0","345265","J=YES, F=NO","yum2fr7pol","2","55","75","35","","","","","","","","","","","","","","","",""
"null","audio/beep-329314.mp3","null","audio-keyboard-response","100","2.1.0","346804","J=YES, F=NO","yum2fr7pol","2","55","75","35","","","","","","","","","","","","","","","",""
"null","audio/desire.wav","null","audio-keyboard-response","101","2.1.0","347685","J=YES, F=NO","yum2fr7pol","2","55","75","35","","","","","","","","","","","","","","","",""
"1461","
          <p id=""word"" style=""font-size: 40px;"">nophed</p>
          <p style=""font-size: 16px;"">J = YES &nbsp;&nbsp;&nbsp; F = NO</p>
        ","j","html-keyboard-response","102","2.1.0","349148","J=YES, F=NO","yum2fr7pol","2","55","75","35","","","","","","","","","nophed","desire","pseudoword","pseudoword","f","false","",""
"null","<p style=""font-size: 50px;"">+</p>","null","html-keyboard-response","103","2.1.0","349450","J=YES, F=NO","yum2fr7pol","2","55","75","35","","","","","","","","","","","","","","","",""
"null","audio/beep-329314.mp3","null","audio-keyboard-response","104","2.1.0","350984","J=YES, F=NO","yum2fr7pol","2","55","75","35","","","","","","","","","","","","","","","",""
"null","audio/meal.wav","null","audio-keyboard-response","105","2.1.0","351743","J=YES, F=NO","yum2fr7pol","2","55","75","35","","","","","","","","","","","","","","","",""
"null","
          <p id=""word"" style=""font-size: 40px;"">gallite</p>
          <p style=""font-size: 16px;"">J = YES &nbsp;&nbsp;&nbsp; F = NO</p>
        ","null","html-keyboard-response","106","2.1.0","353245","J=YES, F=NO","yum2fr7pol","2","55","75","35","","","","","","","","","gallite","meal","pseudoword","pseudoword","f","false","",""
"null","<p style=""font-size: 50px;"">+</p>","null","html-keyboard-response","107","2.1.0","353547","J=YES, F=NO","yum2fr7pol","2","55","75","35","","","","","","","","","","","","","","","",""
"null","audio/beep-329314.mp3","null","audio-keyboard-response","108","2.1.0","355084","J=YES, F=NO","yum2fr7pol","2","55","75","35","","","","","","","","","","","","","","","",""
"null","audio/cave1.wav","null","audio-keyboard-response","109","2.1.0","355783","J=YES, F=NO","yum2fr7pol","2","55","75","35","","","","","","","","","","","","","","","",""
"585","
          <p id=""word"" style=""font-size: 40px;"">blacket</p>
          <p style=""font-size: 16px;"">J = YES &nbsp;&nbsp;&nbsp; F = NO</p>
        ","f","html-keyboard-response","110","2.1.0","356369","J=YES, F=NO","yum2fr7pol","2","55","75","35","","","","","","","","","blacket","cave1","pseudoword","pseudoword","f","true","",""
"null","<p style=""font-size: 50px;"">+</p>","null","html-keyboard-response","111","2.1.0","356673","J=YES, F=NO","yum2fr7pol","2","55","75","35","","","","","","","","","","","","","","","",""
"null","audio/beep-329314.mp3","null","audio-keyboard-response","112","2.1.0","358205","J=YES, F=NO","yum2fr7pol","2","55","75","35","","","","","","","","","","","","","","","",""
"null","audio/bottle.wav","null","audio-keyboard-response","113","2.1.0","360104","J=YES, F=NO","yum2fr7pol","2","55","75","35","","","","","","","","","","","","","","","",""
"860","
          <p id=""word"" style=""font-size: 40px;"">watch</p>
          <p style=""font-size: 16px;"">J = YES &nbsp;&nbsp;&nbsp; F = NO</p>
        ","j","html-keyboard-response","114","2.1.0","360967","J=YES, F=NO","yum2fr7pol","2","55","75","35","","","","","","","","","watch","bottle","filler","filler","j","true","",""
"1995","<p>Starting practice block 2 of 2. Press any key to continue.</p>","j","html-keyboard-response","115","2.1.0","362963","J=YES, F=NO","yum2fr7pol","2","55","75","35","","","","","","","","","","","","","","","",""
"null","<p style=""font-size: 50px;"">+</p>","null","html-keyboard-response","116","2.1.0","363269","J=YES, F=NO","yum2fr7pol","2","55","75","35","","","","","","","","","","","","","","","",""
"null","audio/beep-329314.mp3","null","audio-keyboard-response","117","2.1.0","364804","J=YES, F=NO","yum2fr7pol","2","55","75","35","","","","","","","","","","","","","","","",""
"null","audio/life1.wav","null","audio-keyboard-response","118","2.1.0","365664","J=YES, F=NO","yum2fr7pol","2","55","75","35","","","","","","","","","","","","","","","",""
"375","
          <p id=""word"" style=""font-size: 40px;"">flimch</p>
          <p style=""font-size: 16px;"">J = YES &nbsp;&nbsp;&nbsp; F = NO</p>
        ","j","html-keyboard-response","119","2.1.0","366042","J=YES, F=NO","yum2fr7pol","2","55","75","35","","","","","","","","","flimch","life1","pseudoword","pseudoword","f","false","",""
"null","<p style=""font-size: 50px;"">+</p>","null","html-keyboard-response","120","2.1.0","366346","J=YES, F=NO","yum2fr7pol","2","55","75","35","","","","","","","","","","","","","","","",""
"null","audio/beep-329314.mp3","null","audio-keyboard-response","121","2.1.0","367885","J=YES, F=NO","yum2fr7pol","2","55","75","35","","","","","","","","","","","","","","","",""
"null","audio/mile1.wav","null","audio-keyboard-response","122","2.1.0","368563","J=YES, F=NO","yum2fr7pol","2","55","75","35","","","","","","","","","","","","","","","",""
"953","
          <p id=""word"" style=""font-size: 40px;"">writch</p>
          <p style=""font-size: 16px;"">J = YES &nbsp;&nbsp;&nbsp; F = NO</p>
        ","j","html-keyboard-response","123","2.1.0","369518","J=YES, F=NO","yum2fr7pol","2","55","75","35","","","","","","","","","writch","mile1","pseudoword","pseudoword","f","false","",""
"null","<p style=""font-size: 50px;"">+</p>","null","html-keyboard-response","124","2.1.0","369820","J=YES, F=NO","yum2fr7pol","2","55","75","35","","","","","","","","","","","","","","","",""
"null","audio/beep-329314.mp3","null","audio-keyboard-response","125","2.1.0","371365","J=YES, F=NO","yum2fr7pol","2","55","75","35","","","","","","","","","","","","","","","",""
"null","audio/beach1.wav","null","audio-keyboard-response","126","2.1.0","372263","J=YES, F=NO","yum2fr7pol","2","55","75","35","","","","","","","","","","","","","","","",""
"700","
          <p id=""word"" style=""font-size: 40px;"">drive</p>
          <p style=""font-size: 16px;"">J = YES &nbsp;&nbsp;&nbsp; F = NO</p>
        ","j","html-keyboard-response","127","2.1.0","372965","J=YES, F=NO","yum2fr7pol","2","55","75","35","","","","","","","","","drive","beach1","filler","filler","j","true","",""
"null","<p style=""font-size: 50px;"">+</p>","null","html-keyboard-response","128","2.1.0","373269","J=YES, F=NO","yum2fr7pol","2","55","75","35","","","","","","","","","","","","","","","",""
"null","audio/beep-329314.mp3","null","audio-keyboard-response","129","2.1.0","374803","J=YES, F=NO","yum2fr7pol","2","55","75","35","","","","","","","","","","","","","","","",""
"null","audio/arm.wav","null","audio-keyboard-response","130","2.1.0","375803","J=YES, F=NO","yum2fr7pol","2","55","75","35","","","","","","","","","","","","","","","",""
"485","
          <p id=""word"" style=""font-size: 40px;"">fold</p>
          <p style=""font-size: 16px;"">J = YES &nbsp;&nbsp;&nbsp; F = NO</p>
        ","j","html-keyboard-response","131","2.1.0","376290","J=YES, F=NO","yum2fr7pol","2","55","75","35","","","","","","","","","fold","arm","filler","filler","j","true","",""
"null","<p style=""font-size: 50px;"">+</p>","null","html-keyboard-response","132","2.1.0","376592","J=YES, F=NO","yum2fr7pol","2","55","75","35","","","","","","","","","","","","","","","",""
"null","audio/beep-329314.mp3","null","audio-keyboard-response","133","2.1.0","378123","J=YES, F=NO","yum2fr7pol","2","55","75","35","","","","","","","","","","","","","","","",""
"null","audio/terrain.wav","null","audio-keyboard-response","134","2.1.0","383383","J=YES, F=NO","yum2fr7pol","2","55","75","35","","","","","","","","","","","","","","","",""
"null","
          <p id=""word"" style=""font-size: 40px;"">twist</p>
          <p style=""font-size: 16px;"">J = YES &nbsp;&nbsp;&nbsp; F = NO</p>
        ","null","html-keyboard-response","135","2.1.0","384886","J=YES, F=NO","yum2fr7pol","2","55","75","35","","","","","","","","","twist","terrain","filler","filler","j","false","",""
"null","<p style=""font-size: 50px;"">+</p>","null","html-keyboard-response","136","2.1.0","385188","J=YES, F=NO","yum2fr7pol","2","55","75","35","","","","","","","","","","","","","","","",""
"null","audio/beep-329314.mp3","null","audio-keyboard-response","137","2.1.0","386723","J=YES, F=NO","yum2fr7pol","2","55","75","35","","","","","","","","","","","","","","","",""
"null","audio/golf1.wav","null","audio-keyboard-response","138","2.1.0","387603","J=YES, F=NO","yum2fr7pol","2","55","75","35","","","","","","","","","","","","","","","",""
"null","
          <p id=""word"" style=""font-size: 40px;"">drabble</p>
          <p style=""font-size: 16px;"">J = YES &nbsp;&nbsp;&nbsp; F = NO</p>
        ","null","html-keyboard-response","139","2.1.0","389106","J=YES, F=NO","yum2fr7pol","2","55","75","35","","","","","","","","","drabble","golf1","pseudoword","pseudoword","f","false","",""
"null","<p style=""font-size: 50px;"">+</p>","null","html-keyboard-response","140","2.1.0","389414","J=YES, F=NO","yum2fr7pol","2","55","75","35","","","","","","","","","","","","","","","",""
"null","audio/beep-329314.mp3","null","audio-keyboard-response","141","2.1.0","390943","J=YES, F=NO","yum2fr7pol","2","55","75","35","","","","","","","","","","","","","","","",""
"null","audio/van1.wav","null","audio-keyboard-response","142","2.1.0","391803","J=YES, F=NO","yum2fr7pol","2","55","75","35","","","","","","","","","","","","","","","",""
"1009","
          <p id=""word"" style=""font-size: 40px;"">push</p>
          <p style=""font-size: 16px;"">J = YES &nbsp;&nbsp;&nbsp; F = NO</p>
        ","j","html-keyboard-response","143","2.1.0","392813","J=YES, F=NO","yum2fr7pol","2","55","75","35","","","","","","","","","push","van1","filler","filler","j","true","",""
"null","<p style=""font-size: 50px;"">+</p>","null","html-keyboard-response","144","2.1.0","393116","J=YES, F=NO","yum2fr7pol","2","55","75","35","","","","","","","","","","","","","","","",""
"null","audio/beep-329314.mp3","null","audio-keyboard-response","145","2.1.0","394646","J=YES, F=NO","yum2fr7pol","2","55","75","35","","","","","","","","","","","","","","","",""
"null","audio/plot1.wav","null","audio-keyboard-response","146","2.1.0","395525","J=YES, F=NO","yum2fr7pol","2","55","75","35","","","","","","","","","","","","","","","",""
"476","
          <p id=""word"" style=""font-size: 40px;"">glenter</p>
          <p style=""font-size: 16px;"">J = YES &nbsp;&nbsp;&nbsp; F = NO</p>
        ","f","html-keyboard-response","147","2.1.0","396004","J=YES, F=NO","yum2fr7pol","2","55","75","35","","","","","","","","","glenter","plot1","pseudoword","pseudoword","f","true","",""
"null","<p style=""font-size: 50px;"">+</p>","null","html-keyboard-response","148","2.1.0","396307","J=YES, F=NO","yum2fr7pol","2","55","75","35","","","","","","","","","","","","","","","",""
"null","audio/beep-329314.mp3","null","audio-keyboard-response","149","2.1.0","397844","J=YES, F=NO","yum2fr7pol","2","55","75","35","","","","","","","","","","","","","","","",""
"null","audio/corpse1.wav","null","audio-keyboard-response","150","2.1.0","398764","J=YES, F=NO","yum2fr7pol","2","55","75","35","","","","","","","","","","","","","","","",""
"794","
          <p id=""word"" style=""font-size: 40px;"">glonet</p>
          <p style=""font-size: 16px;"">J = YES &nbsp;&nbsp;&nbsp; F = NO</p>
        ","f","html-keyboard-response","151","2.1.0","399561","J=YES, F=NO","yum2fr7pol","2","55","75","35","","","","","","","","","glonet","corpse1","pseudoword","pseudoword","f","true","",""
"null","<p style=""font-size: 50px;"">+</p>","null","html-keyboard-response","152","2.1.0","399863","J=YES, F=NO","yum2fr7pol","2","55","75","35","","","","","","","","","","","","","","","",""
"null","audio/beep-329314.mp3","null","audio-keyboard-response","153","2.1.0","401404","J=YES, F=NO","yum2fr7pol","2","55","75","35","","","","","","","","","","","","","","","",""
"null","audio/effort.wav","null","audio-keyboard-response","154","2.1.0","402483","J=YES, F=NO","yum2fr7pol","2","55","75","35","","","","","","","","","","","","","","","",""
"520","
          <p id=""word"" style=""font-size: 40px;"">whonk</p>
          <p style=""font-size: 16px;"">J = YES &nbsp;&nbsp;&nbsp; F = NO</p>
        ","j","html-keyboard-response","155","2.1.0","403004","J=YES, F=NO","yum2fr7pol","2","55","75","35","","","","","","","","","whonk","effort","pseudoword","pseudoword","f","false","",""
"null","<p style=""font-size: 50px;"">+</p>","null","html-keyboard-response","156","2.1.0","403307","J=YES, F=NO","yum2fr7pol","2","55","75","35","","","","","","","","","","","","","","","",""
"null","audio/beep-329314.mp3","null","audio-keyboard-response","157","2.1.0","404845","J=YES, F=NO","yum2fr7pol","2","55","75","35","","","","","","","","","","","","","","","",""
"null","audio/grass.wav","null","audio-keyboard-response","158","2.1.0","406003","J=YES, F=NO","yum2fr7pol","2","55","75","35","","","","","","","","","","","","","","","",""
"1039","
          <p id=""word"" style=""font-size: 40px;"">milames</p>
          <p style=""font-size: 16px;"">J = YES &nbsp;&nbsp;&nbsp; F = NO</p>
        ","j","html-keyboard-response","159","2.1.0","407043","J=YES, F=NO","yum2fr7pol","2","55","75","35","","","","","","","","","milames","grass","pseudoword","pseudoword","f","false","",""
"null","<p style=""font-size: 50px;"">+</p>","null","html-keyboard-response","160","2.1.0","407345","J=YES, F=NO","yum2fr7pol","2","55","75","35","","","","","","","","","","","","","","","",""
"null","audio/beep-329314.mp3","null","audio-keyboard-response","161","2.1.0","408884","J=YES, F=NO","yum2fr7pol","2","55","75","35","","","","","","","","","","","","","","","",""
"null","audio/arm.wav","null","audio-keyboard-response","162","2.1.0","409425","J=YES, F=NO","yum2fr7pol","2","55","75","35","","","","","","","","","","","","","","","",""
"514","
          <p id=""word"" style=""font-size: 40px;"">pigne</p>
          <p style=""font-size: 16px;"">J = YES &nbsp;&nbsp;&nbsp; F = NO</p>
        ","j","html-keyboard-response","163","2.1.0","409941","J=YES, F=NO","yum2fr7pol","2","55","75","35","","","","","","","","","pigne","arm","pseudoword","pseudoword","f","false","",""
"20290","
    <div style=""max-width: 800px; margin: auto; text-align: left;"">
      <h2>Part 2: Main Trials</h2>
      <p>Great job on the practice trials!</p>
      <p>You will now begin the <strong>main set of trials</strong>.</p>
      <p>Remember your key assignments:</p>
      <ul>
        <li><strong>J</strong> = YES (real English word)</li>
        <li><strong>F</strong> = NO (not a real English word)</li>
      </ul>
      <p>Try to respond as <strong>quickly and accurately</strong> as possible.</p>
      <p style=""margin-top: 2em;"">Press any key to begin the main trials.</p>
    </div>
  ","g","html-keyboard-response","164","2.1.0","430232","J=YES, F=NO","yum2fr7pol","2","55","75","35","","","","","","","","","","","","","","","",""
"2677","<p>Starting main block 1 of 8. Press any key to continue.</p>","g","html-keyboard-response","165","2.1.0","432909","J=YES, F=NO","yum2fr7pol","2","55","75","35","","","","","","","","","","","","","","","",""
"null","<p style=""font-size: 50px;"">+</p>","null","html-keyboard-response","166","2.1.0","433212","J=YES, F=NO","yum2fr7pol","2","55","75","35","","","","","","","","","","","","","","","",""
"null","audio/beep-329314.mp3","null","audio-keyboard-response","167","2.1.0","434823","J=YES, F=NO","yum2fr7pol","2","55","75","35","","","","","","","","","","","","","","","",""
"null","audio/menu.wav","null","audio-keyboard-response","168","2.1.0","436113","J=YES, F=NO","yum2fr7pol","2","55","75","35","","","","","","","","","","","","","","","",""
"1192","
          <p id=""word"" style=""font-size: 40px;"">slice</p>
          <p style=""font-size: 16px;"">J = YES &nbsp;&nbsp;&nbsp; F = NO</p>
        ","j","html-keyboard-response","169","2.1.0","437306","J=YES, F=NO","yum2fr7pol","2","55","75","35","","","","","","","","","slice","menu","filler","filler","j","true","",""
"null","<p style=""font-size: 50px;"">+</p>","null","html-keyboard-response","170","2.1.0","437609","J=YES, F=NO","yum2fr7pol","2","55","75","35","","","","","","","","","","","","","","","",""
"null","audio/beep-329314.mp3","null","audio-keyboard-response","171","2.1.0","439144","J=YES, F=NO","yum2fr7pol","2","55","75","35","","","","","","","","","","","","","","","",""
"null","audio/noise1.wav","null","audio-keyboard-response","172","2.1.0","440174","J=YES, F=NO","yum2fr7pol","2","55","75","35","","","","","","","","","","","","","","","",""
"539","
          <p id=""word"" style=""font-size: 40px;"">slintered</p>
          <p style=""font-size: 16px;"">J = YES &nbsp;&nbsp;&nbsp; F = NO</p>
        ","j","html-keyboard-response","173","2.1.0","440716","J=YES, F=NO","yum2fr7pol","2","55","75","35","","","","","","","","","slintered","noise1","pseudoword","pseudoword","f","false","",""
"null","<p style=""font-size: 50px;"">+</p>","null","html-keyboard-response","174","2.1.0","441019","J=YES, F=NO","yum2fr7pol","2","55","75","35","","","","","","","","","","","","","","","",""
"null","audio/beep-329314.mp3","null","audio-keyboard-response","175","2.1.0","442565","J=YES, F=NO","yum2fr7pol","2","55","75","35","","","","","","","","","","","","","","","",""
"null","audio/age1.wav","null","audio-keyboard-response","176","2.1.0","443453","J=YES, F=NO","yum2fr7pol","2","55","75","35","","","","","","","","","","","","","","","",""
"751","
          <p id=""word"" style=""font-size: 40px;"">seize</p>
          <p style=""font-size: 16px;"">J = YES &nbsp;&nbsp;&nbsp; F = NO</p>
        ","f","html-keyboard-response","177","2.1.0","444206","J=YES, F=NO","yum2fr7pol","2","55","75","35","","","","","","","","","seize","age1","unrelated","experimental","j","false","",""
"null","<p style=""font-size: 50px;"">+</p>","null","html-keyboard-response","178","2.1.0","444509","J=YES, F=NO","yum2fr7pol","2","55","75","35","","","","","","","","","","","","","","","",""
"null","audio/beep-329314.mp3","null","audio-keyboard-response","179","2.1.0","446044","J=YES, F=NO","yum2fr7pol","2","55","75","35","","","","","","","","","","","","","","","",""
"null","audio/topic.wav","null","audio-keyboard-response","180","2.1.0","447073","J=YES, F=NO","yum2fr7pol","2","55","75","35","","","","","","","","","","","","","","","",""
"780","
          <p id=""word"" style=""font-size: 40px;"">infortuitist</p>
          <p style=""font-size: 16px;"">J = YES &nbsp;&nbsp;&nbsp; F = NO</p>
        ","j","html-keyboard-response","181","2.1.0","447854","J=YES, F=NO","yum2fr7pol","2","55","75","35","","","","","","","","","infortuitist","topic","pseudoword","pseudoword","f","false","",""
"null","<p style=""font-size: 50px;"">+</p>","null","html-keyboard-response","182","2.1.0","448157","J=YES, F=NO","yum2fr7pol","2","55","75","35","","","","","","","","","","","","","","","",""
"null","audio/beep-329314.mp3","null","audio-keyboard-response","183","2.1.0","449685","J=YES, F=NO","yum2fr7pol","2","55","75","35","","","","","","","","","","","","","","","",""
"null","audio/tunnel.wav","null","audio-keyboard-response","184","2.1.0","450135","J=YES, F=NO","yum2fr7pol","2","55","75","35","","","","","","","","","","","","","","","",""
"985","
          <p id=""word"" style=""font-size: 40px;"">gred</p>
          <p style=""font-size: 16px;"">J = YES &nbsp;&nbsp;&nbsp; F = NO</p>
        ","f","html-keyboard-response","185","2.1.0","451123","J=YES, F=NO","yum2fr7pol","2","55","75","35","","","","","","","","","gred","tunnel","pseudoword","pseudoword","f","true","",""
"null","<p style=""font-size: 50px;"">+</p>","null","html-keyboard-response","186","2.1.0","451426","J=YES, F=NO","yum2fr7pol","2","55","75","35","","","","","","","","","","","","","","","",""
"null","audio/beep-329314.mp3","null","audio-keyboard-response","187","2.1.0","452965","J=YES, F=NO","yum2fr7pol","2","55","75","35","","","","","","","","","","","","","","","",""
"null","audio/mind.wav","null","audio-keyboard-response","188","2.1.0","454014","J=YES, F=NO","yum2fr7pol","2","55","75","35","","","","","","","","","","","","","","","",""
"819","
          <p id=""word"" style=""font-size: 40px;"">clear</p>
          <p style=""font-size: 16px;"">J = YES &nbsp;&nbsp;&nbsp; F = NO</p>
        ","j","html-keyboard-response","189","2.1.0","454835","J=YES, F=NO","yum2fr7pol","2","55","75","35","","","","","","","","","clear","mind","metaphor","experimental","j","true","",""
"null","<p style=""font-size: 50px;"">+</p>","null","html-keyboard-response","190","2.1.0","455139","J=YES, F=NO","yum2fr7pol","2","55","75","35","","","","","","","","","","","","","","","",""
"null","audio/beep-329314.mp3","null","audio-keyboard-response","191","2.1.0","456663","J=YES, F=NO","yum2fr7pol","2","55","75","35","","","","","","","","","","","","","","","",""
"null","audio/account1.wav","null","audio-keyboard-response","192","2.1.0","457732","J=YES, F=NO","yum2fr7pol","2","55","75","35","","","","","","","","","","","","","","","",""
"659","
          <p id=""word"" style=""font-size: 40px;"">paint</p>
          <p style=""font-size: 16px;"">J = YES &nbsp;&nbsp;&nbsp; F = NO</p>
        ","j","html-keyboard-response","193","2.1.0","458392","J=YES, F=NO","yum2fr7pol","2","55","75","35","","","","","","","","","paint","account1","filler","filler","j","true","",""
"null","<p style=""font-size: 50px;"">+</p>","null","html-keyboard-response","194","2.1.0","458694","J=YES, F=NO","yum2fr7pol","2","55","75","35","","","","","","","","","","","","","","","",""
"null","audio/beep-329314.mp3","null","audio-keyboard-response","195","2.1.0","460225","J=YES, F=NO","yum2fr7pol","2","55","75","35","","","","","","","","","","","","","","","",""
"null","audio/handle.wav","null","audio-keyboard-response","196","2.1.0","461253","J=YES, F=NO","yum2fr7pol","2","55","75","35","","","","","","","","","","","","","","","",""
"657","
          <p id=""word"" style=""font-size: 40px;"">moutes</p>
          <p style=""font-size: 16px;"">J = YES &nbsp;&nbsp;&nbsp; F = NO</p>
        ","j","html-keyboard-response","197","2.1.0","461913","J=YES, F=NO","yum2fr7pol","2","55","75","35","","","","","","","","","moutes","handle","pseudoword","pseudoword","f","false","",""
"null","<p style=""font-size: 50px;"">+</p>","null","html-keyboard-response","198","2.1.0","462216","J=YES, F=NO","yum2fr7pol","2","55","75","35","","","","","","","","","","","","","","","",""
"null","audio/beep-329314.mp3","null","audio-keyboard-response","199","2.1.0","463744","J=YES, F=NO","yum2fr7pol","2","55","75","35","","","","","","","","","","","","","","","",""
"null","audio/inch1.wav","null","audio-keyboard-response","200","2.1.0","464793","J=YES, F=NO","yum2fr7pol","2","55","75","35","","","","","","","","","","","","","","","",""
"874","
          <p id=""word"" style=""font-size: 40px;"">lose</p>
          <p style=""font-size: 16px;"">J = YES &nbsp;&nbsp;&nbsp; F = NO</p>
        ","j","html-keyboard-response","201","2.1.0","465669","J=YES, F=NO","yum2fr7pol","2","55","75","35","","","","","","","","","lose","inch1","metaphor","experimental","j","true","",""
"null","<p style=""font-size: 50px;"">+</p>","null","html-keyboard-response","202","2.1.0","465973","J=YES, F=NO","yum2fr7pol","2","55","75","35","","","","","","","","","","","","","","","",""
"null","audio/beep-329314.mp3","null","audio-keyboard-response","203","2.1.0","467504","J=YES, F=NO","yum2fr7pol","2","55","75","35","","","","","","","","","","","","","","","",""
"null","audio/pine.wav","null","audio-keyboard-response","204","2.1.0","468314","J=YES, F=NO","yum2fr7pol","2","55","75","35","","","","","","","","","","","","","","","",""
"1255","
          <p id=""word"" style=""font-size: 40px;"">crebble</p>
          <p style=""font-size: 16px;"">J = YES &nbsp;&nbsp;&nbsp; F = NO</p>
        ","j","html-keyboard-response","205","2.1.0","469571","J=YES, F=NO","yum2fr7pol","2","55","75","35","","","","","","","","","crebble","pine","pseudoword","pseudoword","f","false","",""
"null","<p style=""font-size: 50px;"">+</p>","null","html-keyboard-response","206","2.1.0","469874","J=YES, F=NO","yum2fr7pol","2","55","75","35","","","","","","","","","","","","","","","",""
"null","audio/beep-329314.mp3","null","audio-keyboard-response","207","2.1.0","471403","J=YES, F=NO","yum2fr7pol","2","55","75","35","","","","","","","","","","","","","","","",""
"null","audio/pattern.wav","null","audio-keyboard-response","208","2.1.0","472274","J=YES, F=NO","yum2fr7pol","2","55","75","35","","","","","","","","","","","","","","","",""
"647","
          <p id=""word"" style=""font-size: 40px;"">tug</p>
          <p style=""font-size: 16px;"">J = YES &nbsp;&nbsp;&nbsp; F = NO</p>
        ","f","html-keyboard-response","209","2.1.0","472922","J=YES, F=NO","yum2fr7pol","2","55","75","35","","","","","","","","","tug","pattern","filler","filler","j","false","",""
"null","<p style=""font-size: 50px;"">+</p>","null","html-keyboard-response","210","2.1.0","473225","J=YES, F=NO","yum2fr7pol","2","55","75","35","","","","","","","","","","","","","","","",""
"null","audio/beep-329314.mp3","null","audio-keyboard-response","211","2.1.0","474763","J=YES, F=NO","yum2fr7pol","2","55","75","35","","","","","","","","","","","","","","","",""
"null","audio/voice.wav","null","audio-keyboard-response","212","2.1.0","476173","J=YES, F=NO","yum2fr7pol","2","55","75","35","","","","","","","","","","","","","","","",""
"543","
          <p id=""word"" style=""font-size: 40px;"">grintle</p>
          <p style=""font-size: 16px;"">J = YES &nbsp;&nbsp;&nbsp; F = NO</p>
        ","j","html-keyboard-response","213","2.1.0","476717","J=YES, F=NO","yum2fr7pol","2","55","75","35","","","","","","","","","grintle","voice","pseudoword","pseudoword","f","false","",""
"null","<p style=""font-size: 50px;"">+</p>","null","html-keyboard-response","214","2.1.0","477019","J=YES, F=NO","yum2fr7pol","2","55","75","35","","","","","","","","","","","","","","","",""
"null","audio/beep-329314.mp3","null","audio-keyboard-response","215","2.1.0","478563","J=YES, F=NO","yum2fr7pol","2","55","75","35","","","","","","","","","","","","","","","",""
"null","audio/bridge.wav","null","audio-keyboard-response","216","2.1.0","479272","J=YES, F=NO","yum2fr7pol","2","55","75","35","","","","","","","","","","","","","","","",""
"582","
          <p id=""word"" style=""font-size: 40px;"">crack</p>
          <p style=""font-size: 16px;"">J = YES &nbsp;&nbsp;&nbsp; F = NO</p>
        ","j","html-keyboard-response","217","2.1.0","479856","J=YES, F=NO","yum2fr7pol","2","55","75","35","","","","","","","","","crack","bridge","filler","filler","j","true","",""
"null","<p style=""font-size: 50px;"">+</p>","null","html-keyboard-response","218","2.1.0","480159","J=YES, F=NO","yum2fr7pol","2","55","75","35","","","","","","","","","","","","","","","",""
"null","audio/beep-329314.mp3","null","audio-keyboard-response","219","2.1.0","481704","J=YES, F=NO","yum2fr7pol","2","55","75","35","","","","","","","","","","","","","","","",""
"null","audio/age1.wav","null","audio-keyboard-response","220","2.1.0","482233","J=YES, F=NO","yum2fr7pol","2","55","75","35","","","","","","","","","","","","","","","",""
"400","
          <p id=""word"" style=""font-size: 40px;"">lachry</p>
          <p style=""font-size: 16px;"">J = YES &nbsp;&nbsp;&nbsp; F = NO</p>
        ","j","html-keyboard-response","221","2.1.0","482634","J=YES, F=NO","yum2fr7pol","2","55","75","35","","","","","","","","","lachry","age1","pseudoword","pseudoword","f","false","",""
"null","<p style=""font-size: 50px;"">+</p>","null","html-keyboard-response","222","2.1.0","482937","J=YES, F=NO","yum2fr7pol","2","55","75","35","","","","","","","","","","","","","","","",""
"null","audio/beep-329314.mp3","null","audio-keyboard-response","223","2.1.0","484464","J=YES, F=NO","yum2fr7pol","2","55","75","35","","","","","","","","","","","","","","","",""
"null","audio/prisoner.wav","null","audio-keyboard-response","224","2.1.0","485613","J=YES, F=NO","yum2fr7pol","2","55","75","35","","","","","","","","","","","","","","","",""
"718","
          <p id=""word"" style=""font-size: 40px;"">release</p>
          <p style=""font-size: 16px;"">J = YES &nbsp;&nbsp;&nbsp; F = NO</p>
        ","j","html-keyboard-response","225","2.1.0","486334","J=YES, F=NO","yum2fr7pol","2","55","75","35","","","","","","","","","release","prisoner","literal","experimental","j","true","",""
"null","<p style=""font-size: 50px;"">+</p>","null","html-keyboard-response","226","2.1.0","486638","J=YES, F=NO","yum2fr7pol","2","55","75","35","","","","","","","","","","","","","","","",""
"null","audio/beep-329314.mp3","null","audio-keyboard-response","227","2.1.0","488183","J=YES, F=NO","yum2fr7pol","2","55","75","35","","","","","","","","","","","","","","","",""
"null","audio/road.wav","null","audio-keyboard-response","228","2.1.0","488612","J=YES, F=NO","yum2fr7pol","2","55","75","35","","","","","","","","","","","","","","","",""
"807","
          <p id=""word"" style=""font-size: 40px;"">wappings</p>
          <p style=""font-size: 16px;"">J = YES &nbsp;&nbsp;&nbsp; F = NO</p>
        ","f","html-keyboard-response","229","2.1.0","489420","J=YES, F=NO","yum2fr7pol","2","55","75","35","","","","","","","","","wappings","road","pseudoword","pseudoword","f","true","",""
"1932","<p>Excellent! You have finished block 1 of 8.</p>
                     <p>Feel free to take a 30 second break.</p>
                     <p>Press any key when you're ready to continue.</p>","f","html-keyboard-response","230","2.1.0","491354","J=YES, F=NO","yum2fr7pol","2","55","75","35","","","","","","","","","","","","","","","",""
"2100","<p>Starting main block 2 of 8. Press any key to continue.</p>","f","html-keyboard-response","231","2.1.0","493456","J=YES, F=NO","yum2fr7pol","2","55","75","35","","","","","","","","","","","","","","","",""
"null","<p style=""font-size: 50px;"">+</p>","null","html-keyboard-response","232","2.1.0","493759","J=YES, F=NO","yum2fr7pol","2","55","75","35","","","","","","","","","","","","","","","",""
"null","audio/beep-329314.mp3","null","audio-keyboard-response","233","2.1.0","495303","J=YES, F=NO","yum2fr7pol","2","55","75","35","","","","","","","","","","","","","","","",""
"null","audio/grass.wav","null","audio-keyboard-response","234","2.1.0","495933","J=YES, F=NO","yum2fr7pol","2","55","75","35","","","","","","","","","","","","","","","",""
"652","
          <p id=""word"" style=""font-size: 40px;"">cut</p>
          <p style=""font-size: 16px;"">J = YES &nbsp;&nbsp;&nbsp; F = NO</p>
        ","j","html-keyboard-response","235","2.1.0","496586","J=YES, F=NO","yum2fr7pol","2","55","75","35","","","","","","","","","cut","grass","literal","experimental","j","true","",""
"null","<p style=""font-size: 50px;"">+</p>","null","html-keyboard-response","236","2.1.0","496889","J=YES, F=NO","yum2fr7pol","2","55","75","35","","","","","","","","","","","","","","","",""
"null","audio/beep-329314.mp3","null","audio-keyboard-response","237","2.1.0","498422","J=YES, F=NO","yum2fr7pol","2","55","75","35","","","","","","","","","","","","","","","",""
"null","audio/radio1.wav","null","audio-keyboard-response","238","2.1.0","499093","J=YES, F=NO","yum2fr7pol","2","55","75","35","","","","","","","","","","","","","","","",""
"761","
          <p id=""word"" style=""font-size: 40px;"">blanter</p>
          <p style=""font-size: 16px;"">J = YES &nbsp;&nbsp;&nbsp; F = NO</p>
        ","f","html-keyboard-response","239","2.1.0","499855","J=YES, F=NO","yum2fr7pol","2","55","75","35","","","","","","","","","blanter","radio1","pseudoword","pseudoword","f","true","",""
"null","<p style=""font-size: 50px;"">+</p>","null","html-keyboard-response","240","2.1.0","500157","J=YES, F=NO","yum2fr7pol","2","55","75","35","","","","","","","","","","","","","","","",""
"null","audio/beep-329314.mp3","null","audio-keyboard-response","241","2.1.0","501684","J=YES, F=NO","yum2fr7pol","2","55","75","35","","","","","","","","","","","","","","","",""
"null","audio/pain1.wav","null","audio-keyboard-response","242","2.1.0","502173","J=YES, F=NO","yum2fr7pol","2","55","75","35","","","","","","","","","","","","","","","",""
"411","
          <p id=""word"" style=""font-size: 40px;"">sell</p>
          <p style=""font-size: 16px;"">J = YES &nbsp;&nbsp;&nbsp; F = NO</p>
        ","j","html-keyboard-response","243","2.1.0","502585","J=YES, F=NO","yum2fr7pol","2","55","75","35","","","","","","","","","sell","pain1","unrelated","experimental","j","true","",""
"null","<p style=""font-size: 50px;"">+</p>","null","html-keyboard-response","244","2.1.0","502888","J=YES, F=NO","yum2fr7pol","2","55","75","35","","","","","","","","","","","","","","","",""
"null","audio/beep-329314.mp3","null","audio-keyboard-response","245","2.1.0","504425","J=YES, F=NO","yum2fr7pol","2","55","75","35","","","","","","","","","","","","","","","",""
"null","audio/ego.wav","null","audio-keyboard-response","246","2.1.0","505392","J=YES, F=NO","yum2fr7pol","2","55","75","35","","","","","","","","","","","","","","","",""
"609","
          <p id=""word"" style=""font-size: 40px;"">bruite</p>
          <p style=""font-size: 16px;"">J = YES &nbsp;&nbsp;&nbsp; F = NO</p>
        ","f","html-keyboard-response","247","2.1.0","506003","J=YES, F=NO","yum2fr7pol","2","55","75","35","","","","","","","","","bruite","ego","pseudoword","pseudoword","f","true","",""
"null","<p style=""font-size: 50px;"">+</p>","null","html-keyboard-response","248","2.1.0","506305","J=YES, F=NO","yum2fr7pol","2","55","75","35","","","","","","","","","","","","","","","",""
"null","audio/beep-329314.mp3","null","audio-keyboard-response","249","2.1.0","507843","J=YES, F=NO","yum2fr7pol","2","55","75","35","","","","","","","","","","","","","","","",""
"null","audio/essence1.wav","null","audio-keyboard-response","250","2.1.0","508993","J=YES, F=NO","yum2fr7pol","2","55","75","35","","","","","","","","","","","","","","","",""
"900","
          <p id=""word"" style=""font-size: 40px;"">grasp</p>
          <p style=""font-size: 16px;"">J = YES &nbsp;&nbsp;&nbsp; F = NO</p>
        ","f","html-keyboard-response","251","2.1.0","509893","J=YES, F=NO","yum2fr7pol","2","55","75","35","","","","","","","","","grasp","essence1","metaphor","experimental","j","false","",""
"null","<p style=""font-size: 50px;"">+</p>","null","html-keyboard-response","252","2.1.0","510196","J=YES, F=NO","yum2fr7pol","2","55","75","35","","","","","","","","","","","","","","","",""
"null","audio/beep-329314.mp3","null","audio-keyboard-response","253","2.1.0","511723","J=YES, F=NO","yum2fr7pol","2","55","75","35","","","","","","","","","","","","","","","",""
"null","audio/purpose.wav","null","audio-keyboard-response","254","2.1.0","512912","J=YES, F=NO","yum2fr7pol","2","55","75","35","","","","","","","","","","","","","","","",""
"804","
          <p id=""word"" style=""font-size: 40px;"">whigm</p>
          <p style=""font-size: 16px;"">J = YES &nbsp;&nbsp;&nbsp; F = NO</p>
        ","f","html-keyboard-response","255","2.1.0","513718","J=YES, F=NO","yum2fr7pol","2","55","75","35","","","","","","","","","whigm","purpose","pseudoword","pseudoword","f","true","",""
"null","<p style=""font-size: 50px;"">+</p>","null","html-keyboard-response","256","2.1.0","514020","J=YES, F=NO","yum2fr7pol","2","55","75","35","","","","","","","","","","","","","","","",""
"null","audio/beep-329314.mp3","null","audio-keyboard-response","257","2.1.0","515543","J=YES, F=NO","yum2fr7pol","2","55","75","35","","","","","","","","","","","","","","","",""
"null","audio/alarm1.wav","null","audio-keyboard-response","258","2.1.0","516733","J=YES, F=NO","yum2fr7pol","2","55","75","35","","","","","","","","","","","","","","","",""
"433","
          <p id=""word"" style=""font-size: 40px;"">swetp</p>
          <p style=""font-size: 16px;"">J = YES &nbsp;&nbsp;&nbsp; F = NO</p>
        ","j","html-keyboard-response","259","2.1.0","517167","J=YES, F=NO","yum2fr7pol","2","55","75","35","","","","","","","","","swetp","alarm1","pseudoword","pseudoword","f","false","",""
"null","<p style=""font-size: 50px;"">+</p>","null","html-keyboard-response","260","2.1.0","517470","J=YES, F=NO","yum2fr7pol","2","55","75","35","","","","","","","","","","","","","","","",""
"null","audio/beep-329314.mp3","null","audio-keyboard-response","261","2.1.0","519004","J=YES, F=NO","yum2fr7pol","2","55","75","35","","","","","","","","","","","","","","","",""
"null","audio/key1.wav","null","audio-keyboard-response","262","2.1.0","519514","J=YES, F=NO","yum2fr7pol","2","55","75","35","","","","","","","","","","","","","","","",""
"883","
          <p id=""word"" style=""font-size: 40px;"">sminsh</p>
          <p style=""font-size: 16px;"">J = YES &nbsp;&nbsp;&nbsp; F = NO</p>
        ","f","html-keyboard-response","263","2.1.0","520399","J=YES, F=NO","yum2fr7pol","2","55","75","35","","","","","","","","","sminsh","key1","pseudoword","pseudoword","f","true","",""
"null","<p style=""font-size: 50px;"">+</p>","null","html-keyboard-response","264","2.1.0","520700","J=YES, F=NO","yum2fr7pol","2","55","75","35","","","","","","","","","","","","","","","",""
"null","audio/beep-329314.mp3","null","audio-keyboard-response","265","2.1.0","522243","J=YES, F=NO","yum2fr7pol","2","55","75","35","","","","","","","","","","","","","","","",""
"null","audio/cloud1.wav","null","audio-keyboard-response","266","2.1.0","523912","J=YES, F=NO","yum2fr7pol","2","55","75","35","","","","","","","","","","","","","","","",""
"698","
          <p id=""word"" style=""font-size: 40px;"">brotant</p>
          <p style=""font-size: 16px;"">J = YES &nbsp;&nbsp;&nbsp; F = NO</p>
        ","j","html-keyboard-response","267","2.1.0","524612","J=YES, F=NO","yum2fr7pol","2","55","75","35","","","","","","","","","brotant","cloud1","pseudoword","pseudoword","f","false","",""
"null","<p style=""font-size: 50px;"">+</p>","null","html-keyboard-response","268","2.1.0","524915","J=YES, F=NO","yum2fr7pol","2","55","75","35","","","","","","","","","","","","","","","",""
"null","audio/beep-329314.mp3","null","audio-keyboard-response","269","2.1.0","526443","J=YES, F=NO","yum2fr7pol","2","55","75","35","","","","","","","","","","","","","","","",""
"null","audio/winter.wav","null","audio-keyboard-response","270","2.1.0","527653","J=YES, F=NO","yum2fr7pol","2","55","75","35","","","","","","","","","","","","","","","",""
"993","
          <p id=""word"" style=""font-size: 40px;"">straven</p>
          <p style=""font-size: 16px;"">J = YES &nbsp;&nbsp;&nbsp; F = NO</p>
        ","f","html-keyboard-response","271","2.1.0","528648","J=YES, F=NO","yum2fr7pol","2","55","75","35","","","","","","","","","straven","winter","pseudoword","pseudoword","f","true","",""
"null","<p style=""font-size: 50px;"">+</p>","null","html-keyboard-response","272","2.1.0","528950","J=YES, F=NO","yum2fr7pol","2","55","75","35","","","","","","","","","","","","","","","",""
"null","audio/beep-329314.mp3","null","audio-keyboard-response","273","2.1.0","530482","J=YES, F=NO","yum2fr7pol","2","55","75","35","","","","","","","","","","","","","","","",""
"null","audio/pig.wav","null","audio-keyboard-response","274","2.1.0","530892","J=YES, F=NO","yum2fr7pol","2","55","75","35","","","","","","","","","","","","","","","",""
"455","
          <p id=""word"" style=""font-size: 40px;"">tirlike</p>
          <p style=""font-size: 16px;"">J = YES &nbsp;&nbsp;&nbsp; F = NO</p>
        ","j","html-keyboard-response","275","2.1.0","531348","J=YES, F=NO","yum2fr7pol","2","55","75","35","","","","","","","","","tirlike","pig","pseudoword","pseudoword","f","false","",""
"null","<p style=""font-size: 50px;"">+</p>","null","html-keyboard-response","276","2.1.0","531649","J=YES, F=NO","yum2fr7pol","2","55","75","35","","","","","","","","","","","","","","","",""
"null","audio/beep-329314.mp3","null","audio-keyboard-response","277","2.1.0","533184","J=YES, F=NO","yum2fr7pol","2","55","75","35","","","","","","","","","","","","","","","",""
"null","audio/prisoner.wav","null","audio-keyboard-response","278","2.1.0","533673","J=YES, F=NO","yum2fr7pol","2","55","75","35","","","","","","","","","","","","","","","",""
"457","
          <p id=""word"" style=""font-size: 40px;"">egotian</p>
          <p style=""font-size: 16px;"">J = YES &nbsp;&nbsp;&nbsp; F = NO</p>
        ","j","html-keyboard-response","279","2.1.0","534132","J=YES, F=NO","yum2fr7pol","2","55","75","35","","","","","","","","","egotian","prisoner","pseudoword","pseudoword","f","false","",""
"null","<p style=""font-size: 50px;"">+</p>","null","html-keyboard-response","280","2.1.0","534435","J=YES, F=NO","yum2fr7pol","2","55","75","35","","","","","","","","","","","","","","","",""
"null","audio/beep-329314.mp3","null","audio-keyboard-response","281","2.1.0","535963","J=YES, F=NO","yum2fr7pol","2","55","75","35","","","","","","","","","","","","","","","",""
"null","audio/survey1.wav","null","audio-keyboard-response","282","2.1.0","537452","J=YES, F=NO","yum2fr7pol","2","55","75","35","","","","","","","","","","","","","","","",""
"482","
          <p id=""word"" style=""font-size: 40px;"">imploth</p>
          <p style=""font-size: 16px;"">J = YES &nbsp;&nbsp;&nbsp; F = NO</p>
        ","f","html-keyboard-response","283","2.1.0","537936","J=YES, F=NO","yum2fr7pol","2","55","75","35","","","","","","","","","imploth","survey1","pseudoword","pseudoword","f","true","",""
"null","<p style=""font-size: 50px;"">+</p>","null","html-keyboard-response","284","2.1.0","538238","J=YES, F=NO","yum2fr7pol","2","55","75","35","","","","","","","","","","","","","","","",""
"null","audio/beep-329314.mp3","null","audio-keyboard-response","285","2.1.0","539762","J=YES, F=NO","yum2fr7pol","2","55","75","35","","","","","","","","","","","","","","","",""
"null","audio/window1.wav","null","audio-keyboard-response","286","2.1.0","540872","J=YES, F=NO","yum2fr7pol","2","55","75","35","","","","","","","","","","","","","","","",""
"386","
          <p id=""word"" style=""font-size: 40px;"">break</p>
          <p style=""font-size: 16px;"">J = YES &nbsp;&nbsp;&nbsp; F = NO</p>
        ","j","html-keyboard-response","287","2.1.0","541260","J=YES, F=NO","yum2fr7pol","2","55","75","35","","","","","","","","","break","window1","literal","experimental","j","true","",""
"null","<p style=""font-size: 50px;"">+</p>","null","html-keyboard-response","288","2.1.0","541562","J=YES, F=NO","yum2fr7pol","2","55","75","35","","","","","","","","","","","","","","","",""
"null","audio/beep-329314.mp3","null","audio-keyboard-response","289","2.1.0","543104","J=YES, F=NO","yum2fr7pol","2","55","75","35","","","","","","","","","","","","","","","",""
"null","audio/age1.wav","null","audio-keyboard-response","290","2.1.0","543632","J=YES, F=NO","yum2fr7pol","2","55","75","35","","","","","","","","","","","","","","","",""
"352","
          <p id=""word"" style=""font-size: 40px;"">bake</p>
          <p style=""font-size: 16px;"">J = YES &nbsp;&nbsp;&nbsp; F = NO</p>
        ","j","html-keyboard-response","291","2.1.0","543985","J=YES, F=NO","yum2fr7pol","2","55","75","35","","","","","","","","","bake","age1","filler","filler","j","true","",""
"null","<p style=""font-size: 50px;"">+</p>","null","html-keyboard-response","292","2.1.0","544288","J=YES, F=NO","yum2fr7pol","2","55","75","35","","","","","","","","","","","","","","","",""
"null","audio/beep-329314.mp3","null","audio-keyboard-response","293","2.1.0","545822","J=YES, F=NO","yum2fr7pol","2","55","75","35","","","","","","","","","","","","","","","",""
"null","audio/window1.wav","null","audio-keyboard-response","294","2.1.0","546412","J=YES, F=NO","yum2fr7pol","2","55","75","35","","","","","","","","","","","","","","","",""
"408","
          <p id=""word"" style=""font-size: 40px;"">toss</p>
          <p style=""font-size: 16px;"">J = YES &nbsp;&nbsp;&nbsp; F = NO</p>
        ","j","html-keyboard-response","295","2.1.0","546821","J=YES, F=NO","yum2fr7pol","2","55","75","35","","","","","","","","","toss","window1","filler","filler","j","true","",""
"4000","<p>Excellent! You have finished block 2 of 8.</p>
                     <p>Feel free to take a 30 second break.</p>
                     <p>Press any key when you're ready to continue.</p>","f","html-keyboard-response","296","2.1.0","550823","J=YES, F=NO","yum2fr7pol","2","55","75","35","","","","","","","","","","","","","","","",""
"1005","<p>Starting main block 3 of 8. Press any key to continue.</p>","f","html-keyboard-response","297","2.1.0","551829","J=YES, F=NO","yum2fr7pol","2","55","75","35","","","","","","","","","","","","","","","",""
"null","<p style=""font-size: 50px;"">+</p>","null","html-keyboard-response","298","2.1.0","552131","J=YES, F=NO","yum2fr7pol","2","55","75","35","","","","","","","","","","","","","","","",""
"null","audio/beep-329314.mp3","null","audio-keyboard-response","299","2.1.0","553662","J=YES, F=NO","yum2fr7pol","2","55","75","35","","","","","","","","","","","","","","","",""
"null","audio/truth1.wav","null","audio-keyboard-response","300","2.1.0","554632","J=YES, F=NO","yum2fr7pol","2","55","75","35","","","","","","","","","","","","","","","",""
"643","
          <p id=""word"" style=""font-size: 40px;"">calitom</p>
          <p style=""font-size: 16px;"">J = YES &nbsp;&nbsp;&nbsp; F = NO</p>
        ","f","html-keyboard-response","301","2.1.0","555277","J=YES, F=NO","yum2fr7pol","2","55","75","35","","","","","","","","","calitom","truth1","pseudoword","pseudoword","f","true","",""
"null","<p style=""font-size: 50px;"">+</p>","null","html-keyboard-response","302","2.1.0","555580","J=YES, F=NO","yum2fr7pol","2","55","75","35","","","","","","","","","","","","","","","",""
"null","audio/beep-329314.mp3","null","audio-keyboard-response","303","2.1.0","557122","J=YES, F=NO","yum2fr7pol","2","55","75","35","","","","","","","","","","","","","","","",""
"null","audio/ankle1.wav","null","audio-keyboard-response","304","2.1.0","558053","J=YES, F=NO","yum2fr7pol","2","55","75","35","","","","","","","","","","","","","","","",""
"477","
          <p id=""word"" style=""font-size: 40px;"">switm</p>
          <p style=""font-size: 16px;"">J = YES &nbsp;&nbsp;&nbsp; F = NO</p>
        ","j","html-keyboard-response","305","2.1.0","558534","J=YES, F=NO","yum2fr7pol","2","55","75","35","","","","","","","","","switm","ankle1","pseudoword","pseudoword","f","false","",""
"null","<p style=""font-size: 50px;"">+</p>","null","html-keyboard-response","306","2.1.0","558836","J=YES, F=NO","yum2fr7pol","2","55","75","35","","","","","","","","","","","","","","","",""
"null","audio/beep-329314.mp3","null","audio-keyboard-response","307","2.1.0","560363","J=YES, F=NO","yum2fr7pol","2","55","75","35","","","","","","","","","","","","","","","",""
"null","audio/wealth1.wav","null","audio-keyboard-response","308","2.1.0","561413","J=YES, F=NO","yum2fr7pol","2","55","75","35","","","","","","","","","","","","","","","",""
"940","
          <p id=""word"" style=""font-size: 40px;"">possess</p>
          <p style=""font-size: 16px;"">J = YES &nbsp;&nbsp;&nbsp; F = NO</p>
        ","f","html-keyboard-response","309","2.1.0","562355","J=YES, F=NO","yum2fr7pol","2","55","75","35","","","","","","","","","possess","wealth1","literal","experimental","j","false","",""
"null","<p style=""font-size: 50px;"">+</p>","null","html-keyboard-response","310","2.1.0","562658","J=YES, F=NO","yum2fr7pol","2","55","75","35","","","","","","","","","","","","","","","",""
"null","audio/beep-329314.mp3","null","audio-keyboard-response","311","2.1.0","564204","J=YES, F=NO","yum2fr7pol","2","55","75","35","","","","","","","","","","","","","","","",""
"null","audio/holiday1.wav","null","audio-keyboard-response","312","2.1.0","565112","J=YES, F=NO","yum2fr7pol","2","55","75","35","","","","","","","","","","","","","","","",""
"564","
          <p id=""word"" style=""font-size: 40px;"">drivets</p>
          <p style=""font-size: 16px;"">J = YES &nbsp;&nbsp;&nbsp; F = NO</p>
        ","j","html-keyboard-response","313","2.1.0","565678","J=YES, F=NO","yum2fr7pol","2","55","75","35","","","","","","","","","drivets","holiday1","pseudoword","pseudoword","f","false","",""
"null","<p style=""font-size: 50px;"">+</p>","null","html-keyboard-response","314","2.1.0","565979","J=YES, F=NO","yum2fr7pol","2","55","75","35","","","","","","","","","","","","","","","",""
"null","audio/beep-329314.mp3","null","audio-keyboard-response","315","2.1.0","567502","J=YES, F=NO","yum2fr7pol","2","55","75","35","","","","","","","","","","","","","","","",""
"null","audio/scar.wav","null","audio-keyboard-response","316","2.1.0","568252","J=YES, F=NO","yum2fr7pol","2","55","75","35","","","","","","","","","","","","","","","",""
"1031","
          <p id=""word"" style=""font-size: 40px;"">adelineate</p>
          <p style=""font-size: 16px;"">J = YES &nbsp;&nbsp;&nbsp; F = NO</p>
        ","j","html-keyboard-response","317","2.1.0","569285","J=YES, F=NO","yum2fr7pol","2","55","75","35","","","","","","","","","adelineate","scar","pseudoword","pseudoword","f","false","",""
"null","<p style=""font-size: 50px;"">+</p>","null","html-keyboard-response","318","2.1.0","569587","J=YES, F=NO","yum2fr7pol","2","55","75","35","","","","","","","","","","","","","","","",""
"null","audio/beep-329314.mp3","null","audio-keyboard-response","319","2.1.0","571123","J=YES, F=NO","yum2fr7pol","2","55","75","35","","","","","","","","","","","","","","","",""
"null","audio/weight1.wav","null","audio-keyboard-response","320","2.1.0","572073","J=YES, F=NO","yum2fr7pol","2","55","75","35","","","","","","","","","","","","","","","",""
"1000","
          <p id=""word"" style=""font-size: 40px;"">crimsh</p>
          <p style=""font-size: 16px;"">J = YES &nbsp;&nbsp;&nbsp; F = NO</p>
        ","f","html-keyboard-response","321","2.1.0","573075","J=YES, F=NO","yum2fr7pol","2","55","75","35","","","","","","","","","crimsh","weight1","pseudoword","pseudoword","f","true","",""
"null","<p style=""font-size: 50px;"">+</p>","null","html-keyboard-response","322","2.1.0","573377","J=YES, F=NO","yum2fr7pol","2","55","75","35","","","","","","","","","","","","","","","",""
"null","audio/beep-329314.mp3","null","audio-keyboard-response","323","2.1.0","574903","J=YES, F=NO","yum2fr7pol","2","55","75","35","","","","","","","","","","","","","","","",""
"null","audio/show.wav","null","audio-keyboard-response","324","2.1.0","575874","J=YES, F=NO","yum2fr7pol","2","55","75","35","","","","","","","","","","","","","","","",""
"1053","
          <p id=""word"" style=""font-size: 40px;"">smark</p>
          <p style=""font-size: 16px;"">J = YES &nbsp;&nbsp;&nbsp; F = NO</p>
        ","j","html-keyboard-response","325","2.1.0","576930","J=YES, F=NO","yum2fr7pol","2","55","75","35","","","","","","","","","smark","show","pseudoword","pseudoword","f","false","",""
"null","<p style=""font-size: 50px;"">+</p>","null","html-keyboard-response","326","2.1.0","577231","J=YES, F=NO","yum2fr7pol","2","55","75","35","","","","","","","","","","","","","","","",""
"null","audio/beep-329314.mp3","null","audio-keyboard-response","327","2.1.0","578763","J=YES, F=NO","yum2fr7pol","2","55","75","35","","","","","","","","","","","","","","","",""
"null","audio/emotion.wav","null","audio-keyboard-response","328","2.1.0","579674","J=YES, F=NO","yum2fr7pol","2","55","75","35","","","","","","","","","","","","","","","",""
"669","
          <p id=""word"" style=""font-size: 40px;"">devering</p>
          <p style=""font-size: 16px;"">J = YES &nbsp;&nbsp;&nbsp; F = NO</p>
        ","j","html-keyboard-response","329","2.1.0","580344","J=YES, F=NO","yum2fr7pol","2","55","75","35","","","","","","","","","devering","emotion","pseudoword","pseudoword","f","false","",""
"null","<p style=""font-size: 50px;"">+</p>","null","html-keyboard-response","330","2.1.0","580647","J=YES, F=NO","yum2fr7pol","2","55","75","35","","","","","","","","","","","","","","","",""
"null","audio/beep-329314.mp3","null","audio-keyboard-response","331","2.1.0","582182","J=YES, F=NO","yum2fr7pol","2","55","75","35","","","","","","","","","","","","","","","",""
"null","audio/alarm1.wav","null","audio-keyboard-response","332","2.1.0","582752","J=YES, F=NO","yum2fr7pol","2","55","75","35","","","","","","","","","","","","","","","",""
"487","
          <p id=""word"" style=""font-size: 40px;"">save</p>
          <p style=""font-size: 16px;"">J = YES &nbsp;&nbsp;&nbsp; F = NO</p>
        ","j","html-keyboard-response","333","2.1.0","583240","J=YES, F=NO","yum2fr7pol","2","55","75","35","","","","","","","","","save","alarm1","unrelated","experimental","j","true","",""
"null","<p style=""font-size: 50px;"">+</p>","null","html-keyboard-response","334","2.1.0","583543","J=YES, F=NO","yum2fr7pol","2","55","75","35","","","","","","","","","","","","","","","",""
"null","audio/beep-329314.mp3","null","audio-keyboard-response","335","2.1.0","585084","J=YES, F=NO","yum2fr7pol","2","55","75","35","","","","","","","","","","","","","","","",""
"null","audio/hawk1.wav","null","audio-keyboard-response","336","2.1.0","585992","J=YES, F=NO","yum2fr7pol","2","55","75","35","","","","","","","","","","","","","","","",""
"438","
          <p id=""word"" style=""font-size: 40px;"">ostach</p>
          <p style=""font-size: 16px;"">J = YES &nbsp;&nbsp;&nbsp; F = NO</p>
        ","j","html-keyboard-response","337","2.1.0","586433","J=YES, F=NO","yum2fr7pol","2","55","75","35","","","","","","","","","ostach","hawk1","pseudoword","pseudoword","f","false","",""
"null","<p style=""font-size: 50px;"">+</p>","null","html-keyboard-response","338","2.1.0","586736","J=YES, F=NO","yum2fr7pol","2","55","75","35","","","","","","","","","","","","","","","",""
"null","audio/beep-329314.mp3","null","audio-keyboard-response","339","2.1.0","588282","J=YES, F=NO","yum2fr7pol","2","55","75","35","","","","","","","","","","","","","","","",""
"null","audio/menu.wav","null","audio-keyboard-response","340","2.1.0","588833","J=YES, F=NO","yum2fr7pol","2","55","75","35","","","","","","","","","","","","","","","",""
"1385","
          <p id=""word"" style=""font-size: 40px;"">navigate</p>
          <p style=""font-size: 16px;"">J = YES &nbsp;&nbsp;&nbsp; F = NO</p>
        ","j","html-keyboard-response","341","2.1.0","590221","J=YES, F=NO","yum2fr7pol","2","55","75","35","","","","","","","","","navigate","menu","metaphor","experimental","j","true","",""
"null","<p style=""font-size: 50px;"">+</p>","null","html-keyboard-response","342","2.1.0","590532","J=YES, F=NO","yum2fr7pol","2","55","75","35","","","","","","","","","","","","","","","",""
"null","audio/beep-329314.mp3","null","audio-keyboard-response","343","2.1.0","592063","J=YES, F=NO","yum2fr7pol","2","55","75","35","","","","","","","","","","","","","","","",""
"null","audio/gift1.wav","null","audio-keyboard-response","344","2.1.0","592972","J=YES, F=NO","yum2fr7pol","2","55","75","35","","","","","","","","","","","","","","","",""
"582","
          <p id=""word"" style=""font-size: 40px;"">protsh</p>
          <p style=""font-size: 16px;"">J = YES &nbsp;&nbsp;&nbsp; F = NO</p>
        ","j","html-keyboard-response","345","2.1.0","593556","J=YES, F=NO","yum2fr7pol","2","55","75","35","","","","","","","","","protsh","gift1","pseudoword","pseudoword","f","false","",""
"null","<p style=""font-size: 50px;"">+</p>","null","html-keyboard-response","346","2.1.0","593859","J=YES, F=NO","yum2fr7pol","2","55","75","35","","","","","","","","","","","","","","","",""
"null","audio/beep-329314.mp3","null","audio-keyboard-response","347","2.1.0","595403","J=YES, F=NO","yum2fr7pol","2","55","75","35","","","","","","","","","","","","","","","",""
"null","audio/stain.wav","null","audio-keyboard-response","348","2.1.0","596532","J=YES, F=NO","yum2fr7pol","2","55","75","35","","","","","","","","","","","","","","","",""
"758","
          <p id=""word"" style=""font-size: 40px;"">rumpsied</p>
          <p style=""font-size: 16px;"">J = YES &nbsp;&nbsp;&nbsp; F = NO</p>
        ","f","html-keyboard-response","349","2.1.0","597293","J=YES, F=NO","yum2fr7pol","2","55","75","35","","","","","","","","","rumpsied","stain","pseudoword","pseudoword","f","true","",""
"null","<p style=""font-size: 50px;"">+</p>","null","html-keyboard-response","350","2.1.0","597596","J=YES, F=NO","yum2fr7pol","2","55","75","35","","","","","","","","","","","","","","","",""
"null","audio/beep-329314.mp3","null","audio-keyboard-response","351","2.1.0","599142","J=YES, F=NO","yum2fr7pol","2","55","75","35","","","","","","","","","","","","","","","",""
"null","audio/breath.wav","null","audio-keyboard-response","352","2.1.0","599693","J=YES, F=NO","yum2fr7pol","2","55","75","35","","","","","","","","","","","","","","","",""
"398","
          <p id=""word"" style=""font-size: 40px;"">twets</p>
          <p style=""font-size: 16px;"">J = YES &nbsp;&nbsp;&nbsp; F = NO</p>
        ","j","html-keyboard-response","353","2.1.0","600092","J=YES, F=NO","yum2fr7pol","2","55","75","35","","","","","","","","","twets","breath","pseudoword","pseudoword","f","false","",""
"null","<p style=""font-size: 50px;"">+</p>","null","html-keyboard-response","354","2.1.0","600394","J=YES, F=NO","yum2fr7pol","2","55","75","35","","","","","","","","","","","","","","","",""
"null","audio/beep-329314.mp3","null","audio-keyboard-response","355","2.1.0","601923","J=YES, F=NO","yum2fr7pol","2","55","75","35","","","","","","","","","","","","","","","",""
"null","audio/dollar.wav","null","audio-keyboard-response","356","2.1.0","602372","J=YES, F=NO","yum2fr7pol","2","55","75","35","","","","","","","","","","","","","","","",""
"706","
          <p id=""word"" style=""font-size: 40px;"">gliptism</p>
          <p style=""font-size: 16px;"">J = YES &nbsp;&nbsp;&nbsp; F = NO</p>
        ","f","html-keyboard-response","357","2.1.0","603079","J=YES, F=NO","yum2fr7pol","2","55","75","35","","","","","","","","","gliptism","dollar","pseudoword","pseudoword","f","true","",""
"null","<p style=""font-size: 50px;"">+</p>","null","html-keyboard-response","358","2.1.0","603382","J=YES, F=NO","yum2fr7pol","2","55","75","35","","","","","","","","","","","","","","","",""
"null","audio/beep-329314.mp3","null","audio-keyboard-response","359","2.1.0","604922","J=YES, F=NO","yum2fr7pol","2","55","75","35","","","","","","","","","","","","","","","",""
"null","audio/relief.wav","null","audio-keyboard-response","360","2.1.0","605873","J=YES, F=NO","yum2fr7pol","2","55","75","35","","","","","","","","","","","","","","","",""
"898","
          <p id=""word"" style=""font-size: 40px;"">grigg</p>
          <p style=""font-size: 16px;"">J = YES &nbsp;&nbsp;&nbsp; F = NO</p>
        ","f","html-keyboard-response","361","2.1.0","606773","J=YES, F=NO","yum2fr7pol","2","55","75","35","","","","","","","","","grigg","relief","pseudoword","pseudoword","f","true","",""
"1800","<p>Excellent! You have finished block 3 of 8.</p>
                     <p>Feel free to take a 30 second break.</p>
                     <p>Press any key when you're ready to continue.</p>","f","html-keyboard-response","362","2.1.0","608574","J=YES, F=NO","yum2fr7pol","2","55","75","35","","","","","","","","","","","","","","","",""
"1079","<p>Starting main block 4 of 8. Press any key to continue.</p>","f","html-keyboard-response","363","2.1.0","609654","J=YES, F=NO","yum2fr7pol","2","55","75","35","","","","","","","","","","","","","","","",""
"null","<p style=""font-size: 50px;"">+</p>","null","html-keyboard-response","364","2.1.0","609957","J=YES, F=NO","yum2fr7pol","2","55","75","35","","","","","","","","","","","","","","","",""
"null","audio/beep-329314.mp3","null","audio-keyboard-response","365","2.1.0","611484","J=YES, F=NO","yum2fr7pol","2","55","75","35","","","","","","","","","","","","","","","",""
"null","audio/alarm1.wav","null","audio-keyboard-response","366","2.1.0","612052","J=YES, F=NO","yum2fr7pol","2","55","75","35","","","","","","","","","","","","","","","",""
"348","
          <p id=""word"" style=""font-size: 40px;"">lock</p>
          <p style=""font-size: 16px;"">J = YES &nbsp;&nbsp;&nbsp; F = NO</p>
        ","j","html-keyboard-response","367","2.1.0","612401","J=YES, F=NO","yum2fr7pol","2","55","75","35","","","","","","","","","lock","alarm1","filler","filler","j","true","",""
"null","<p style=""font-size: 50px;"">+</p>","null","html-keyboard-response","368","2.1.0","612703","J=YES, F=NO","yum2fr7pol","2","55","75","35","","","","","","","","","","","","","","","",""
"null","audio/beep-329314.mp3","null","audio-keyboard-response","369","2.1.0","614243","J=YES, F=NO","yum2fr7pol","2","55","75","35","","","","","","","","","","","","","","","",""
"null","audio/breath.wav","null","audio-keyboard-response","370","2.1.0","614792","J=YES, F=NO","yum2fr7pol","2","55","75","35","","","","","","","","","","","","","","","",""
"370","
          <p id=""word"" style=""font-size: 40px;"">construct</p>
          <p style=""font-size: 16px;"">J = YES &nbsp;&nbsp;&nbsp; F = NO</p>
        ","j","html-keyboard-response","371","2.1.0","615163","J=YES, F=NO","yum2fr7pol","2","55","75","35","","","","","","","","","construct","breath","unrelated","experimental","j","true","",""
"null","<p style=""font-size: 50px;"">+</p>","null","html-keyboard-response","372","2.1.0","615466","J=YES, F=NO","yum2fr7pol","2","55","75","35","","","","","","","","","","","","","","","",""
"null","audio/beep-329314.mp3","null","audio-keyboard-response","373","2.1.0","617002","J=YES, F=NO","yum2fr7pol","2","55","75","35","","","","","","","","","","","","","","","",""
"null","audio/uncle1.wav","null","audio-keyboard-response","374","2.1.0","617875","J=YES, F=NO","yum2fr7pol","2","55","75","35","","","","","","","","","","","","","","","",""
"548","
          <p id=""word"" style=""font-size: 40px;"">dramble</p>
          <p style=""font-size: 16px;"">J = YES &nbsp;&nbsp;&nbsp; F = NO</p>
        ","f","html-keyboard-response","375","2.1.0","618425","J=YES, F=NO","yum2fr7pol","2","55","75","35","","","","","","","","","dramble","uncle1","pseudoword","pseudoword","f","true","",""
"null","<p style=""font-size: 50px;"">+</p>","null","html-keyboard-response","376","2.1.0","618728","J=YES, F=NO","yum2fr7pol","2","55","75","35","","","","","","","","","","","","","","","",""
"null","audio/beep-329314.mp3","null","audio-keyboard-response","377","2.1.0","620264","J=YES, F=NO","yum2fr7pol","2","55","75","35","","","","","","","","","","","","","","","",""
"null","audio/roof1.wav","null","audio-keyboard-response","378","2.1.0","621751","J=YES, F=NO","yum2fr7pol","2","55","75","35","","","","","","","","","","","","","","","",""
"645","
          <p id=""word"" style=""font-size: 40px;"">wronb</p>
          <p style=""font-size: 16px;"">J = YES &nbsp;&nbsp;&nbsp; F = NO</p>
        ","f","html-keyboard-response","379","2.1.0","622398","J=YES, F=NO","yum2fr7pol","2","55","75","35","","","","","","","","","wronb","roof1","pseudoword","pseudoword","f","true","",""
"null","<p style=""font-size: 50px;"">+</p>","null","html-keyboard-response","380","2.1.0","622701","J=YES, F=NO","yum2fr7pol","2","55","75","35","","","","","","","","","","","","","","","",""
"null","audio/beep-329314.mp3","null","audio-keyboard-response","381","2.1.0","624243","J=YES, F=NO","yum2fr7pol","2","55","75","35","","","","","","","","","","","","","","","",""
"null","audio/rank1.wav","null","audio-keyboard-response","382","2.1.0","625291","J=YES, F=NO","yum2fr7pol","2","55","75","35","","","","","","","","","","","","","","","",""
"402","
          <p id=""word"" style=""font-size: 40px;"">climb</p>
          <p style=""font-size: 16px;"">J = YES &nbsp;&nbsp;&nbsp; F = NO</p>
        ","j","html-keyboard-response","383","2.1.0","625695","J=YES, F=NO","yum2fr7pol","2","55","75","35","","","","","","","","","climb","rank1","metaphor","experimental","j","true","",""
"null","<p style=""font-size: 50px;"">+</p>","null","html-keyboard-response","384","2.1.0","625998","J=YES, F=NO","yum2fr7pol","2","55","75","35","","","","","","","","","","","","","","","",""
"null","audio/beep-329314.mp3","null","audio-keyboard-response","385","2.1.0","627543","J=YES, F=NO","yum2fr7pol","2","55","75","35","","","","","","","","","","","","","","","",""
"null","audio/case1.wav","null","audio-keyboard-response","386","2.1.0","628453","J=YES, F=NO","yum2fr7pol","2","55","75","35","","","","","","","","","","","","","","","",""
"562","
          <p id=""word"" style=""font-size: 40px;"">close</p>
          <p style=""font-size: 16px;"">J = YES &nbsp;&nbsp;&nbsp; F = NO</p>
        ","j","html-keyboard-response","387","2.1.0","629018","J=YES, F=NO","yum2fr7pol","2","55","75","35","","","","","","","","","close","case1","metaphor","experimental","j","true","",""
"null","<p style=""font-size: 50px;"">+</p>","null","html-keyboard-response","388","2.1.0","629319","J=YES, F=NO","yum2fr7pol","2","55","75","35","","","","","","","","","","","","","","","",""
"null","audio/beep-329314.mp3","null","audio-keyboard-response","389","2.1.0","630862","J=YES, F=NO","yum2fr7pol","2","55","75","35","","","","","","","","","","","","","","","",""
"null","audio/mood1.wav","null","audio-keyboard-response","390","2.1.0","631691","J=YES, F=NO","yum2fr7pol","2","55","75","35","","","","","","","","","","","","","","","",""
"511","
          <p id=""word"" style=""font-size: 40px;"">give</p>
          <p style=""font-size: 16px;"">J = YES &nbsp;&nbsp;&nbsp; F = NO</p>
