"rt","stimulus","response","trial_type","trial_index","plugin_version","time_elapsed","response_mapping","subject_id","list_index","lextale_score","lextale_word_score","lextale_nonword_score","success","timeout","failed_images","failed_audio","failed_video","task","isWord","isDummy","target","prime","prime_type","stimulus_type","correct_response","correct","section","question_order"
"2359","
    <div style=""max-width: 800px; margin: auto; text-align: left;"">
      <h2>STANFORD UNIVERSITY</h2>
      <h3>Research Information Sheet</h3>
      <p><strong>Protocol Director:</strong> Robert Hawkins<br>
      <strong>Protocol Title:</strong> Communication and social cognition in natural audiovisual contexts<br>
      <strong>IRB#:</strong> 77226</p>

      <p><strong>DESCRIPTION:</strong> You are invited to participate in a research study about language and communication. The purpose of the research is to understand how you interact and communicate with other people in naturalistic settings as a fluent English speaker. This research will be conducted through the Prolific platform, including participants from the US, UK, and Canada. If you decide to participate in this research, you will play a communication game in a group with one or more partners.</p>

      <p><strong>TIME INVOLVEMENT:</strong> The task will last the amount of time advertised on Prolific. You are free to withdraw from the study at any time.</p>

      <p><strong>RISKS AND BENEFITS:</strong> You may become frustrated if your partner gets distracted, or experience discomfort if other participants in your group send text that is inappropriate for the task. We ask you to please be respectful of other participants you might be interacting with to mitigate these risks. You may also experience discomfort when being asked to discuss or challenge emotionally salient political beliefs. Study data will be stored securely, in compliance with Stanford University standards, minimizing the risk of confidentiality breach. This study advances our scientific understanding of how people communicate and collaborate in naturalistic settings. This study may lead to further insights about what can go wrong in teamwork, suggest potential interventions to overcome these barriers, and help to develop assistive technologies that collaborate with human partners. We cannot and do not guarantee or promise that you will receive any benefits from this study.</p>

      <p><strong>PAYMENTS:</strong> You will receive payment in the amount advertised on Prolific. If you do not complete this study, you will receive prorated payment based on the time that you have spent. Additionally, you may be eligible for bonus payments as described in the instructions.</p>

      <p><strong>PARTICIPANT’S RIGHTS:</strong> If you have read this form and have decided to participate in this project, please understand your participation is voluntary and you have the right to withdraw your consent or discontinue participation at any time without penalty or loss of benefits to which you are otherwise entitled. The alternative is not to participate. You have the right to refuse to answer particular questions. The results of this research study may be presented at scientific or professional meetings or published in scientific journals. Your individual privacy will be maintained in all published and written data resulting from the study. In accordance with scientific norms, the data from this study may be used or shared with other researchers for future research (after removing personally identifying information) without additional consent from you.</p>

      <p><strong>CONTACT INFORMATION:</strong><br>
      Questions: If you have any questions, concerns or complaints about this research, its procedures, risks and benefits, contact the Protocol Director, Robert Hawkins (<a href=""mailto:rdhawkins@stanford.edu"">rdhawkins@stanford.edu</a>, 217-549-6923).<br>
      Independent Contact: If you are not satisfied with how this study is being conducted, or if you have any concerns, complaints, or general questions about the research or your rights as a participant, please contact the Stanford Institutional Review Board (IRB) to speak to someone independent of the research team at 650-723-2480 or toll free at 1-866-680-2906, or email at <a href=""mailto:irbnon-med@stanford.edu"">irbnon-med@stanford.edu</a>. You can also write to the Stanford IRB, Stanford University, 1705 El Camino Real, Palo Alto, CA 94306.</p>

      <p><strong>Please save or print a copy of this page for your records.</strong></p>
      <p>If you agree to participate in this research, click ""Continue"" below.</p>
    </div>
  ","0","html-button-response","0","2.1.0","2366","F=YES, J=NO","ywqr1m39bx","0","78","75","80","","","","","","","","","","","","","","","",""
"3112","
    <div style=""max-width: 800px; margin: auto; text-align: left;"">
      <h2>Welcome!</h2>
      <p>Thank you for participating in this study. The experiment consists of three parts:</p>
      <ol>
        <li>An English vocabulary test</li>
        <li>A main task in which you will hear and see words, and decide whether the written word is a real English word</li>
        <li>A brief survey about your background</li>
      </ol>
      <p>Each part will be introduced before it begins.</p>
      <p>Please make sure you are in a quiet environment and can hear audio clearly for the final task.</p>
      <p style=""margin-top: 2em;"">Press any key to begin.</p>
    </div>
  ","k","html-keyboard-response","1","2.1.0","5480","F=YES, J=NO","ywqr1m39bx","0","78","75","80","","","","","","","","","","","","","","","",""
"","","","preload","2","2.1.0","7155","F=YES, J=NO","ywqr1m39bx","0","78","75","80","true","false","[]","[]","[]","","","","","","","","","","",""
"2358","
    <div style=""max-width: 800px; margin: auto; text-align: left;"">
      <h2>Part 1: Vocabulary Test</h2>
      <p>You will now complete the first part of the study: a short English vocabulary test.</p>
      <p>This test is called <strong>LexTALE</strong> and helps us get a general sense of your English proficiency.</p>
      <p style=""margin-top: 2em;"">Press any key to continue.</p>
    </div>
  ","k","html-keyboard-response","3","2.1.0","9513","F=YES, J=NO","ywqr1m39bx","0","78","75","80","","","","","","","","","","","","","","","",""
"11951","
    <div style=""max-width: 800px; margin: auto; text-align: left;"">
      <h2>LexTALE Vocabulary Test</h2>
      <p>In this test, you will see a series of letter strings—one at a time.</p>
      <p>Your task is to decide whether each string is a real English word.</p>
      <p><strong>Key responses:</strong></p>
      <ul>
        <li><strong>F</strong> = YES (real English word)</li>
        <li><strong>J</strong> = NO (not a real English word)</li>
      </ul>
      <p>There is no time limit, but please try to be accurate.</p>
      <p style=""margin-top: 2em;"">Press any key to begin.</p>
    </div>
  ","s","html-keyboard-response","4","2.1.0","21466","F=YES, J=NO","ywqr1m39bx","0","78","75","80","","","","","","","","","","","","","","","",""
"4057","
  <p style=""font-size: 40px;"">platery</p>
  <p style=""font-size: 16px;"">F = YES &nbsp;&nbsp;&nbsp; J = NO</p>
","j","html-keyboard-response","5","2.1.0","25524","F=YES, J=NO","ywqr1m39bx","0","78","75","80","","","","","","lextale","false","true","","","","","","","",""
"857","
  <p style=""font-size: 40px;"">denial</p>
  <p style=""font-size: 16px;"">F = YES &nbsp;&nbsp;&nbsp; J = NO</p>
","f","html-keyboard-response","6","2.1.0","26382","F=YES, J=NO","ywqr1m39bx","0","78","75","80","","","","","","lextale","true","true","","","","","","","",""
"1550","
  <p style=""font-size: 40px;"">marrit</p>
  <p style=""font-size: 16px;"">F = YES &nbsp;&nbsp;&nbsp; J = NO</p>
","f","html-keyboard-response","7","2.1.0","27933","F=YES, J=NO","ywqr1m39bx","0","78","75","80","","","","","","lextale","false","true","","","","","","","",""
"802","
  <p style=""font-size: 40px;"">bottle</p>
  <p style=""font-size: 16px;"">F = YES &nbsp;&nbsp;&nbsp; J = NO</p>
","f","html-keyboard-response","8","2.1.0","28736","F=YES, J=NO","ywqr1m39bx","0","78","75","80","","","","","","lextale","true","false","","","","","","","",""
"1388","
  <p style=""font-size: 40px;"">birst</p>
  <p style=""font-size: 16px;"">F = YES &nbsp;&nbsp;&nbsp; J = NO</p>
","j","html-keyboard-response","9","2.1.0","30125","F=YES, J=NO","ywqr1m39bx","0","78","75","80","","","","","","lextale","false","false","","","","","","","",""
"857","
  <p style=""font-size: 40px;"">envy</p>
  <p style=""font-size: 16px;"">F = YES &nbsp;&nbsp;&nbsp; J = NO</p>
","f","html-keyboard-response","10","2.1.0","30983","F=YES, J=NO","ywqr1m39bx","0","78","75","80","","","","","","lextale","true","false","","","","","","","",""
"1354","
  <p style=""font-size: 40px;"">brang</p>
  <p style=""font-size: 16px;"">F = YES &nbsp;&nbsp;&nbsp; J = NO</p>
","j","html-keyboard-response","11","2.1.0","32339","F=YES, J=NO","ywqr1m39bx","0","78","75","80","","","","","","lextale","false","false","","","","","","","",""
"794","
  <p style=""font-size: 40px;"">huge</p>
  <p style=""font-size: 16px;"">F = YES &nbsp;&nbsp;&nbsp; J = NO</p>
","f","html-keyboard-response","12","2.1.0","33134","F=YES, J=NO","ywqr1m39bx","0","78","75","80","","","","","","lextale","true","false","","","","","","","",""
"990","
  <p style=""font-size: 40px;"">plove</p>
  <p style=""font-size: 16px;"">F = YES &nbsp;&nbsp;&nbsp; J = NO</p>
","j","html-keyboard-response","13","2.1.0","34125","F=YES, J=NO","ywqr1m39bx","0","78","75","80","","","","","","lextale","false","false","","","","","","","",""
"809","
  <p style=""font-size: 40px;"">border</p>
  <p style=""font-size: 16px;"">F = YES &nbsp;&nbsp;&nbsp; J = NO</p>
","f","html-keyboard-response","14","2.1.0","34934","F=YES, J=NO","ywqr1m39bx","0","78","75","80","","","","","","lextale","true","false","","","","","","","",""
"878","
  <p style=""font-size: 40px;"">flimsy</p>
  <p style=""font-size: 16px;"">F = YES &nbsp;&nbsp;&nbsp; J = NO</p>
","f","html-keyboard-response","15","2.1.0","35813","F=YES, J=NO","ywqr1m39bx","0","78","75","80","","","","","","lextale","true","false","","","","","","","",""
"850","
  <p style=""font-size: 40px;"">drain</p>
  <p style=""font-size: 16px;"">F = YES &nbsp;&nbsp;&nbsp; J = NO</p>
","f","html-keyboard-response","16","2.1.0","36664","F=YES, J=NO","ywqr1m39bx","0","78","75","80","","","","","","lextale","true","false","","","","","","","",""
"907","
  <p style=""font-size: 40px;"">twindle</p>
  <p style=""font-size: 16px;"">F = YES &nbsp;&nbsp;&nbsp; J = NO</p>
","f","html-keyboard-response","17","2.1.0","37573","F=YES, J=NO","ywqr1m39bx","0","78","75","80","","","","","","lextale","false","false","","","","","","","",""
"1044","
  <p style=""font-size: 40px;"">propose</p>
  <p style=""font-size: 16px;"">F = YES &nbsp;&nbsp;&nbsp; J = NO</p>
","f","html-keyboard-response","18","2.1.0","38618","F=YES, J=NO","ywqr1m39bx","0","78","75","80","","","","","","lextale","true","false","","","","","","","",""
"1133","
  <p style=""font-size: 40px;"">forlay</p>
  <p style=""font-size: 16px;"">F = YES &nbsp;&nbsp;&nbsp; J = NO</p>
","j","html-keyboard-response","19","2.1.0","39751","F=YES, J=NO","ywqr1m39bx","0","78","75","80","","","","","","lextale","false","false","","","","","","","",""
"1132","
  <p style=""font-size: 40px;"">tenant</p>
  <p style=""font-size: 16px;"">F = YES &nbsp;&nbsp;&nbsp; J = NO</p>
","j","html-keyboard-response","20","2.1.0","40884","F=YES, J=NO","ywqr1m39bx","0","78","75","80","","","","","","lextale","true","false","","","","","","","",""
"737","
  <p style=""font-size: 40px;"">strain</p>
  <p style=""font-size: 16px;"">F = YES &nbsp;&nbsp;&nbsp; J = NO</p>
","f","html-keyboard-response","21","2.1.0","41621","F=YES, J=NO","ywqr1m39bx","0","78","75","80","","","","","","lextale","true","false","","","","","","","",""
"897","
  <p style=""font-size: 40px;"">holster</p>
  <p style=""font-size: 16px;"">F = YES &nbsp;&nbsp;&nbsp; J = NO</p>
","f","html-keyboard-response","22","2.1.0","42520","F=YES, J=NO","ywqr1m39bx","0","78","75","80","","","","","","lextale","true","false","","","","","","","",""
"1912","
  <p style=""font-size: 40px;"">hinder</p>
  <p style=""font-size: 16px;"">F = YES &nbsp;&nbsp;&nbsp; J = NO</p>
","f","html-keyboard-response","23","2.1.0","44433","F=YES, J=NO","ywqr1m39bx","0","78","75","80","","","","","","lextale","true","false","","","","","","","",""
"975","
  <p style=""font-size: 40px;"">swindle</p>
  <p style=""font-size: 16px;"">F = YES &nbsp;&nbsp;&nbsp; J = NO</p>
","f","html-keyboard-response","24","2.1.0","45410","F=YES, J=NO","ywqr1m39bx","0","78","75","80","","","","","","lextale","true","false","","","","","","","",""
"1045","
  <p style=""font-size: 40px;"">nuder</p>
  <p style=""font-size: 16px;"">F = YES &nbsp;&nbsp;&nbsp; J = NO</p>
","j","html-keyboard-response","25","2.1.0","46456","F=YES, J=NO","ywqr1m39bx","0","78","75","80","","","","","","lextale","false","false","","","","","","","",""
"754","
  <p style=""font-size: 40px;"">pillow</p>
  <p style=""font-size: 16px;"">F = YES &nbsp;&nbsp;&nbsp; J = NO</p>
","f","html-keyboard-response","26","2.1.0","47211","F=YES, J=NO","ywqr1m39bx","0","78","75","80","","","","","","lextale","true","false","","","","","","","",""
"1132","
  <p style=""font-size: 40px;"">shumble</p>
  <p style=""font-size: 16px;"">F = YES &nbsp;&nbsp;&nbsp; J = NO</p>
","j","html-keyboard-response","27","2.1.0","48344","F=YES, J=NO","ywqr1m39bx","0","78","75","80","","","","","","lextale","false","false","","","","","","","",""
"1424","
  <p style=""font-size: 40px;"">thirst</p>
  <p style=""font-size: 16px;"">F = YES &nbsp;&nbsp;&nbsp; J = NO</p>
","f","html-keyboard-response","28","2.1.0","49768","F=YES, J=NO","ywqr1m39bx","0","78","75","80","","","","","","lextale","true","false","","","","","","","",""
"2211","
  <p style=""font-size: 40px;"">unsail</p>
  <p style=""font-size: 16px;"">F = YES &nbsp;&nbsp;&nbsp; J = NO</p>
","f","html-keyboard-response","29","2.1.0","51980","F=YES, J=NO","ywqr1m39bx","0","78","75","80","","","","","","lextale","false","false","","","","","","","",""
"1051","
  <p style=""font-size: 40px;"">rifle</p>
  <p style=""font-size: 16px;"">F = YES &nbsp;&nbsp;&nbsp; J = NO</p>
","f","html-keyboard-response","30","2.1.0","53032","F=YES, J=NO","ywqr1m39bx","0","78","75","80","","","","","","lextale","true","false","","","","","","","",""
"1355","
  <p style=""font-size: 40px;"">mush</p>
  <p style=""font-size: 16px;"">F = YES &nbsp;&nbsp;&nbsp; J = NO</p>
","f","html-keyboard-response","31","2.1.0","54388","F=YES, J=NO","ywqr1m39bx","0","78","75","80","","","","","","lextale","false","false","","","","","","","",""
"1024","
  <p style=""font-size: 40px;"">drench</p>
  <p style=""font-size: 16px;"">F = YES &nbsp;&nbsp;&nbsp; J = NO</p>
","f","html-keyboard-response","32","2.1.0","55413","F=YES, J=NO","ywqr1m39bx","0","78","75","80","","","","","","lextale","true","false","","","","","","","",""
"910","
  <p style=""font-size: 40px;"">snirt</p>
  <p style=""font-size: 16px;"">F = YES &nbsp;&nbsp;&nbsp; J = NO</p>
","j","html-keyboard-response","33","2.1.0","56323","F=YES, J=NO","ywqr1m39bx","0","78","75","80","","","","","","lextale","false","false","","","","","","","",""
"842","
  <p style=""font-size: 40px;"">bitter</p>
  <p style=""font-size: 16px;"">F = YES &nbsp;&nbsp;&nbsp; J = NO</p>
","f","html-keyboard-response","34","2.1.0","57166","F=YES, J=NO","ywqr1m39bx","0","78","75","80","","","","","","lextale","true","false","","","","","","","",""
"809","
  <p style=""font-size: 40px;"">pliff</p>
  <p style=""font-size: 16px;"">F = YES &nbsp;&nbsp;&nbsp; J = NO</p>
","j","html-keyboard-response","35","2.1.0","57976","F=YES, J=NO","ywqr1m39bx","0","78","75","80","","","","","","lextale","false","false","","","","","","","",""
"782","
  <p style=""font-size: 40px;"">tablet</p>
  <p style=""font-size: 16px;"">F = YES &nbsp;&nbsp;&nbsp; J = NO</p>
","f","html-keyboard-response","36","2.1.0","58758","F=YES, J=NO","ywqr1m39bx","0","78","75","80","","","","","","lextale","true","false","","","","","","","",""
"1031","
  <p style=""font-size: 40px;"">glimmer</p>
  <p style=""font-size: 16px;"">F = YES &nbsp;&nbsp;&nbsp; J = NO</p>
","f","html-keyboard-response","37","2.1.0","59790","F=YES, J=NO","ywqr1m39bx","0","78","75","80","","","","","","lextale","true","false","","","","","","","",""
"1079","
  <p style=""font-size: 40px;"">slink</p>
  <p style=""font-size: 16px;"">F = YES &nbsp;&nbsp;&nbsp; J = NO</p>
","j","html-keyboard-response","38","2.1.0","60870","F=YES, J=NO","ywqr1m39bx","0","78","75","80","","","","","","lextale","true","false","","","","","","","",""
"788","
  <p style=""font-size: 40px;"">clever</p>
  <p style=""font-size: 16px;"">F = YES &nbsp;&nbsp;&nbsp; J = NO</p>
","f","html-keyboard-response","39","2.1.0","61659","F=YES, J=NO","ywqr1m39bx","0","78","75","80","","","","","","lextale","true","false","","","","","","","",""
"2004","
  <p style=""font-size: 40px;"">grum</p>
  <p style=""font-size: 16px;"">F = YES &nbsp;&nbsp;&nbsp; J = NO</p>
","j","html-keyboard-response","40","2.1.0","63663","F=YES, J=NO","ywqr1m39bx","0","78","75","80","","","","","","lextale","false","false","","","","","","","",""
"760","
  <p style=""font-size: 40px;"">string</p>
  <p style=""font-size: 16px;"">F = YES &nbsp;&nbsp;&nbsp; J = NO</p>
","f","html-keyboard-response","41","2.1.0","64424","F=YES, J=NO","ywqr1m39bx","0","78","75","80","","","","","","lextale","true","false","","","","","","","",""
"1053","
  <p style=""font-size: 40px;"">plim</p>
  <p style=""font-size: 16px;"">F = YES &nbsp;&nbsp;&nbsp; J = NO</p>
","j","html-keyboard-response","42","2.1.0","65477","F=YES, J=NO","ywqr1m39bx","0","78","75","80","","","","","","lextale","false","false","","","","","","","",""
"676","
  <p style=""font-size: 40px;"">cable</p>
  <p style=""font-size: 16px;"">F = YES &nbsp;&nbsp;&nbsp; J = NO</p>
","f","html-keyboard-response","43","2.1.0","66154","F=YES, J=NO","ywqr1m39bx","0","78","75","80","","","","","","lextale","true","false","","","","","","","",""
"1736","
  <p style=""font-size: 40px;"">shrivel</p>
  <p style=""font-size: 16px;"">F = YES &nbsp;&nbsp;&nbsp; J = NO</p>
","j","html-keyboard-response","44","2.1.0","67891","F=YES, J=NO","ywqr1m39bx","0","78","75","80","","","","","","lextale","true","false","","","","","","","",""
"1288","
  <p style=""font-size: 40px;"">tarnish</p>
  <p style=""font-size: 16px;"">F = YES &nbsp;&nbsp;&nbsp; J = NO</p>
","f","html-keyboard-response","45","2.1.0","69179","F=YES, J=NO","ywqr1m39bx","0","78","75","80","","","","","","lextale","true","false","","","","","","","",""
"1794","
  <p style=""font-size: 40px;"">blim</p>
  <p style=""font-size: 16px;"">F = YES &nbsp;&nbsp;&nbsp; J = NO</p>
","j","html-keyboard-response","46","2.1.0","70974","F=YES, J=NO","ywqr1m39bx","0","78","75","80","","","","","","lextale","false","false","","","","","","","",""
"909","
  <p style=""font-size: 40px;"">stifle</p>
  <p style=""font-size: 16px;"">F = YES &nbsp;&nbsp;&nbsp; J = NO</p>
","j","html-keyboard-response","47","2.1.0","71884","F=YES, J=NO","ywqr1m39bx","0","78","75","80","","","","","","lextale","true","false","","","","","","","",""
"904","
  <p style=""font-size: 40px;"">bint</p>
  <p style=""font-size: 16px;"">F = YES &nbsp;&nbsp;&nbsp; J = NO</p>
","j","html-keyboard-response","48","2.1.0","72788","F=YES, J=NO","ywqr1m39bx","0","78","75","80","","","","","","lextale","false","false","","","","","","","",""
"632","
  <p style=""font-size: 40px;"">purple</p>
  <p style=""font-size: 16px;"">F = YES &nbsp;&nbsp;&nbsp; J = NO</p>
","f","html-keyboard-response","49","2.1.0","73421","F=YES, J=NO","ywqr1m39bx","0","78","75","80","","","","","","lextale","true","false","","","","","","","",""
"2699","
  <p style=""font-size: 40px;"">wriggle</p>
  <p style=""font-size: 16px;"">F = YES &nbsp;&nbsp;&nbsp; J = NO</p>
","f","html-keyboard-response","50","2.1.0","76121","F=YES, J=NO","ywqr1m39bx","0","78","75","80","","","","","","lextale","true","false","","","","","","","",""
"2130","
  <p style=""font-size: 40px;"">mangle</p>
  <p style=""font-size: 16px;"">F = YES &nbsp;&nbsp;&nbsp; J = NO</p>
","f","html-keyboard-response","51","2.1.0","78251","F=YES, J=NO","ywqr1m39bx","0","78","75","80","","","","","","lextale","true","false","","","","","","","",""
"1084","
  <p style=""font-size: 40px;"">shramp</p>
  <p style=""font-size: 16px;"">F = YES &nbsp;&nbsp;&nbsp; J = NO</p>
","j","html-keyboard-response","52","2.1.0","79337","F=YES, J=NO","ywqr1m39bx","0","78","75","80","","","","","","lextale","false","false","","","","","","","",""
"703","
  <p style=""font-size: 40px;"">flirt</p>
  <p style=""font-size: 16px;"">F = YES &nbsp;&nbsp;&nbsp; J = NO</p>
","f","html-keyboard-response","53","2.1.0","80040","F=YES, J=NO","ywqr1m39bx","0","78","75","80","","","","","","lextale","true","false","","","","","","","",""
"740","
  <p style=""font-size: 40px;"">frip</p>
  <p style=""font-size: 16px;"">F = YES &nbsp;&nbsp;&nbsp; J = NO</p>
","j","html-keyboard-response","54","2.1.0","80782","F=YES, J=NO","ywqr1m39bx","0","78","75","80","","","","","","lextale","false","false","","","","","","","",""
"2129","
  <p style=""font-size: 40px;"">tangle</p>
  <p style=""font-size: 16px;"">F = YES &nbsp;&nbsp;&nbsp; J = NO</p>
","f","html-keyboard-response","55","2.1.0","82911","F=YES, J=NO","ywqr1m39bx","0","78","75","80","","","","","","lextale","true","false","","","","","","","",""
"803","
  <p style=""font-size: 40px;"">crumble</p>
  <p style=""font-size: 16px;"">F = YES &nbsp;&nbsp;&nbsp; J = NO</p>
","f","html-keyboard-response","56","2.1.0","83715","F=YES, J=NO","ywqr1m39bx","0","78","75","80","","","","","","lextale","true","false","","","","","","","",""
"627","
  <p style=""font-size: 40px;"">wrinkle</p>
  <p style=""font-size: 16px;"">F = YES &nbsp;&nbsp;&nbsp; J = NO</p>
","f","html-keyboard-response","57","2.1.0","84343","F=YES, J=NO","ywqr1m39bx","0","78","75","80","","","","","","lextale","true","false","","","","","","","",""
"828","
  <p style=""font-size: 40px;"">slumb</p>
  <p style=""font-size: 16px;"">F = YES &nbsp;&nbsp;&nbsp; J = NO</p>
","j","html-keyboard-response","58","2.1.0","85172","F=YES, J=NO","ywqr1m39bx","0","78","75","80","","","","","","lextale","false","false","","","","","","","",""
"1114","
  <p style=""font-size: 40px;"">jungle</p>
  <p style=""font-size: 16px;"">F = YES &nbsp;&nbsp;&nbsp; J = NO</p>
","f","html-keyboard-response","59","2.1.0","86286","F=YES, J=NO","ywqr1m39bx","0","78","75","80","","","","","","lextale","true","false","","","","","","","",""
"962","
  <p style=""font-size: 40px;"">frolick</p>
  <p style=""font-size: 16px;"">F = YES &nbsp;&nbsp;&nbsp; J = NO</p>
","j","html-keyboard-response","60","2.1.0","87249","F=YES, J=NO","ywqr1m39bx","0","78","75","80","","","","","","lextale","false","false","","","","","","","",""
"4605","
      <h2>LexTALE Test Completed</h2>
      <p>Your LexTALE vocabulary score is: <strong>78%</strong></p>
      <p>Press any key to continue.</p>
    ","f","html-keyboard-response","61","2.1.0","91856","F=YES, J=NO","ywqr1m39bx","0","78","75","80","","","","","","","","","","","","","","","",""
"9341","
    <div style=""max-width: 800px; margin: auto; text-align: left;"">
      <h2>Break Time</h2>
      <p>You have completed the first part of the study.</p>
      <p>You may take a short <strong>30-second break</strong> before continuing.</p>
      <p>When you’re ready, press any key to continue to the final task.</p>
    </div>
  ","d","html-keyboard-response","62","2.1.0","101198","F=YES, J=NO","ywqr1m39bx","0","78","75","80","","","","","","","","","","","","","","","",""
"14655","
    <div style=""max-width: 800px; margin: auto; text-align: left;"">
      <h2>Part 2: Lexical Decision Task</h2>
      <p>You will now begin the second part of the study.</p>
      <p>Each trial will follow this sequence:</p>
      <ul>
        <li>A fixation cross (+) appears at the center of the screen.</li>
        <li>You will hear a short beep followed by a spoken word.</li>
        <li>A written word will appear briefly on the screen.</li>
      </ul>
      <p>Your task is to judge whether the <strong>written word</strong> is a real English word.</p>
      <p style=""margin-top: 1em;""><strong>Key responses:</strong></p>
      <ul>
        <li><strong>F</strong> = YES (real English word)</li>
        <li><strong>J</strong> = NO (not a real English word)</li>
      </ul>
      <p>Please respond as quickly and accurately as you can.</p>
      <p style=""margin-top: 2em;"">Press any key to continue.</p>
    </div>
  ","d","html-keyboard-response","63","2.1.0","115854","F=YES, J=NO","ywqr1m39bx","0","78","75","80","","","","","","","","","","","","","","","",""
"9724","
    <div style=""max-width: 800px; margin: auto; text-align: left;"">
      <h2>Before You Begin</h2>
      <p>Make sure your sound is turned on.</p>
      <p>You will hear audio during each trial, but your decision should be based only on the <strong>written word</strong> you see on the screen.</p>
      <p><strong>Reminder:</strong></p>
      <ul>
        <li><strong>F</strong> = YES (real English word)</li>
        <li><strong>J</strong> = NO (not a real English word)</li>
      </ul>
      <p style=""margin-top: 2em;"">Press any key when you are ready to begin.</p>
    </div>
  ","f","html-keyboard-response","64","2.1.0","125579","F=YES, J=NO","ywqr1m39bx","0","78","75","80","","","","","","","","","","","","","","","",""
"3541","
    <div style=""max-width: 800px; margin: auto; text-align: left;"">
      <h2>Part 2: Practice Trials</h2>
      <p>You will now complete a few <strong>practice trials</strong> to get familiar with the task.</p>
      <p>These trials are <strong>not scored</strong> and are only to help you get used to the format.</p>
      <p style=""margin-top: 2em;"">Press any key to begin.</p>
    </div>
  ","d","html-keyboard-response","65","2.1.0","129121","F=YES, J=NO","ywqr1m39bx","0","78","75","80","","","","","","","","","","","","","","","",""
"2427","<p>Starting practice block 1 of 2. Press any key to continue.</p>","d","html-keyboard-response","66","2.1.0","131548","F=YES, J=NO","ywqr1m39bx","0","78","75","80","","","","","","","","","","","","","","","",""
"null","<p style=""font-size: 50px;"">+</p>","null","html-keyboard-response","67","2.1.0","131852","F=YES, J=NO","ywqr1m39bx","0","78","75","80","","","","","","","","","","","","","","","",""
"null","audio/beep-329314.mp3","null","audio-keyboard-response","68","2.1.0","133381","F=YES, J=NO","ywqr1m39bx","0","78","75","80","","","","","","","","","","","","","","","",""
"null","audio/ankle1.wav","null","audio-keyboard-response","69","2.1.0","133891","F=YES, J=NO","ywqr1m39bx","0","78","75","80","","","","","","","","","","","","","","","",""
"null","
          <p id=""word"" style=""font-size: 40px;"">kick</p>
          <p style=""font-size: 16px;"">F = YES &nbsp;&nbsp;&nbsp; J = NO</p>
        ","null","html-keyboard-response","70","2.1.0","135402","F=YES, J=NO","ywqr1m39bx","0","78","75","80","","","","","","","","","kick","ankle1","filler","filler","f","false","",""
"null","<p style=""font-size: 50px;"">+</p>","null","html-keyboard-response","71","2.1.0","135712","F=YES, J=NO","ywqr1m39bx","0","78","75","80","","","","","","","","","","","","","","","",""
"null","audio/beep-329314.mp3","null","audio-keyboard-response","72","2.1.0","137241","F=YES, J=NO","ywqr1m39bx","0","78","75","80","","","","","","","","","","","","","","","",""
"null","audio/battle1.wav","null","audio-keyboard-response","73","2.1.0","137711","F=YES, J=NO","ywqr1m39bx","0","78","75","80","","","","","","","","","","","","","","","",""
"608","
          <p id=""word"" style=""font-size: 40px;"">boil</p>
          <p style=""font-size: 16px;"">F = YES &nbsp;&nbsp;&nbsp; J = NO</p>
        ","j","html-keyboard-response","74","2.1.0","138320","F=YES, J=NO","ywqr1m39bx","0","78","75","80","","","","","","","","","boil","battle1","filler","filler","f","false","",""
"null","<p style=""font-size: 50px;"">+</p>","null","html-keyboard-response","75","2.1.0","138621","F=YES, J=NO","ywqr1m39bx","0","78","75","80","","","","","","","","","","","","","","","",""
"null","audio/beep-329314.mp3","null","audio-keyboard-response","76","2.1.0","140161","F=YES, J=NO","ywqr1m39bx","0","78","75","80","","","","","","","","","","","","","","","",""
"null","audio/belief.wav","null","audio-keyboard-response","77","2.1.0","140791","F=YES, J=NO","ywqr1m39bx","0","78","75","80","","","","","","","","","","","","","","","",""
"610","
          <p id=""word"" style=""font-size: 40px;"">read</p>
          <p style=""font-size: 16px;"">F = YES &nbsp;&nbsp;&nbsp; J = NO</p>
        ","f","html-keyboard-response","78","2.1.0","141403","F=YES, J=NO","ywqr1m39bx","0","78","75","80","","","","","","","","","read","belief","filler","filler","f","true","",""
"null","<p style=""font-size: 50px;"">+</p>","null","html-keyboard-response","79","2.1.0","141705","F=YES, J=NO","ywqr1m39bx","0","78","75","80","","","","","","","","","","","","","","","",""
"null","audio/beep-329314.mp3","null","audio-keyboard-response","80","2.1.0","143241","F=YES, J=NO","ywqr1m39bx","0","78","75","80","","","","","","","","","","","","","","","",""
"null","audio/menu.wav","null","audio-keyboard-response","81","2.1.0","143951","F=YES, J=NO","ywqr1m39bx","0","78","75","80","","","","","","","","","","","","","","","",""
"608","
          <p id=""word"" style=""font-size: 40px;"">slice</p>
          <p style=""font-size: 16px;"">F = YES &nbsp;&nbsp;&nbsp; J = NO</p>
        ","f","html-keyboard-response","82","2.1.0","144560","F=YES, J=NO","ywqr1m39bx","0","78","75","80","","","","","","","","","slice","menu","filler","filler","f","true","",""
"null","<p style=""font-size: 50px;"">+</p>","null","html-keyboard-response","83","2.1.0","144868","F=YES, J=NO","ywqr1m39bx","0","78","75","80","","","","","","","","","","","","","","","",""
"null","audio/beep-329314.mp3","null","audio-keyboard-response","84","2.1.0","146401","F=YES, J=NO","ywqr1m39bx","0","78","75","80","","","","","","","","","","","","","","","",""
"null","audio/foot1.wav","null","audio-keyboard-response","85","2.1.0","146971","F=YES, J=NO","ywqr1m39bx","0","78","75","80","","","","","","","","","","","","","","","",""
"590","
          <p id=""word"" style=""font-size: 40px;"">thrutt</p>
          <p style=""font-size: 16px;"">F = YES &nbsp;&nbsp;&nbsp; J = NO</p>
        ","j","html-keyboard-response","86","2.1.0","147562","F=YES, J=NO","ywqr1m39bx","0","78","75","80","","","","","","","","","thrutt","foot1","pseudoword","pseudoword","j","true","",""
"null","<p style=""font-size: 50px;"">+</p>","null","html-keyboard-response","87","2.1.0","147875","F=YES, J=NO","ywqr1m39bx","0","78","75","80","","","","","","","","","","","","","","","",""
"null","audio/beep-329314.mp3","null","audio-keyboard-response","88","2.1.0","149401","F=YES, J=NO","ywqr1m39bx","0","78","75","80","","","","","","","","","","","","","","","",""
"null","audio/voice.wav","null","audio-keyboard-response","89","2.1.0","150011","F=YES, J=NO","ywqr1m39bx","0","78","75","80","","","","","","","","","","","","","","","",""
"646","
          <p id=""word"" style=""font-size: 40px;"">grintle</p>
          <p style=""font-size: 16px;"">F = YES &nbsp;&nbsp;&nbsp; J = NO</p>
        ","f","html-keyboard-response","90","2.1.0","150658","F=YES, J=NO","ywqr1m39bx","0","78","75","80","","","","","","","","","grintle","voice","pseudoword","pseudoword","j","false","",""
"null","<p style=""font-size: 50px;"">+</p>","null","html-keyboard-response","91","2.1.0","150972","F=YES, J=NO","ywqr1m39bx","0","78","75","80","","","","","","","","","","","","","","","",""
"null","audio/beep-329314.mp3","null","audio-keyboard-response","92","2.1.0","152501","F=YES, J=NO","ywqr1m39bx","0","78","75","80","","","","","","","","","","","","","","","",""
"null","audio/arm.wav","null","audio-keyboard-response","93","2.1.0","153051","F=YES, J=NO","ywqr1m39bx","0","78","75","80","","","","","","","","","","","","","","","",""
"620","
          <p id=""word"" style=""font-size: 40px;"">fold</p>
          <p style=""font-size: 16px;"">F = YES &nbsp;&nbsp;&nbsp; J = NO</p>
        ","j","html-keyboard-response","94","2.1.0","153672","F=YES, J=NO","ywqr1m39bx","0","78","75","80","","","","","","","","","fold","arm","filler","filler","f","false","",""
"null","<p style=""font-size: 50px;"">+</p>","null","html-keyboard-response","95","2.1.0","153986","F=YES, J=NO","ywqr1m39bx","0","78","75","80","","","","","","","","","","","","","","","",""
"null","audio/beep-329314.mp3","null","audio-keyboard-response","96","2.1.0","155521","F=YES, J=NO","ywqr1m39bx","0","78","75","80","","","","","","","","","","","","","","","",""
"null","audio/mind.wav","null","audio-keyboard-response","97","2.1.0","156111","F=YES, J=NO","ywqr1m39bx","0","78","75","80","","","","","","","","","","","","","","","",""
"642","
          <p id=""word"" style=""font-size: 40px;"">crainate</p>
          <p style=""font-size: 16px;"">F = YES &nbsp;&nbsp;&nbsp; J = NO</p>
        ","j","html-keyboard-response","98","2.1.0","156754","F=YES, J=NO","ywqr1m39bx","0","78","75","80","","","","","","","","","crainate","mind","pseudoword","pseudoword","j","true","",""
"null","<p style=""font-size: 50px;"">+</p>","null","html-keyboard-response","99","2.1.0","157068","F=YES, J=NO","ywqr1m39bx","0","78","75","80","","","","","","","","","","","","","","","",""
"null","audio/beep-329314.mp3","null","audio-keyboard-response","100","2.1.0","158601","F=YES, J=NO","ywqr1m39bx","0","78","75","80","","","","","","","","","","","","","","","",""
"null","audio/cinema1.wav","null","audio-keyboard-response","101","2.1.0","159211","F=YES, J=NO","ywqr1m39bx","0","78","75","80","","","","","","","","","","","","","","","",""
"651","
          <p id=""word"" style=""font-size: 40px;"">murple</p>
          <p style=""font-size: 16px;"">F = YES &nbsp;&nbsp;&nbsp; J = NO</p>
        ","j","html-keyboard-response","102","2.1.0","159864","F=YES, J=NO","ywqr1m39bx","0","78","75","80","","","","","","","","","murple","cinema1","pseudoword","pseudoword","j","true","",""
"null","<p style=""font-size: 50px;"">+</p>","null","html-keyboard-response","103","2.1.0","160173","F=YES, J=NO","ywqr1m39bx","0","78","75","80","","","","","","","","","","","","","","","",""
"null","audio/beep-329314.mp3","null","audio-keyboard-response","104","2.1.0","161701","F=YES, J=NO","ywqr1m39bx","0","78","75","80","","","","","","","","","","","","","","","",""
"null","audio/bottle.wav","null","audio-keyboard-response","105","2.1.0","162171","F=YES, J=NO","ywqr1m39bx","0","78","75","80","","","","","","","","","","","","","","","",""
"538","
          <p id=""word"" style=""font-size: 40px;"">watch</p>
          <p style=""font-size: 16px;"">F = YES &nbsp;&nbsp;&nbsp; J = NO</p>
        ","f","html-keyboard-response","106","2.1.0","162710","F=YES, J=NO","ywqr1m39bx","0","78","75","80","","","","","","","","","watch","bottle","filler","filler","f","true","",""
"null","<p style=""font-size: 50px;"">+</p>","null","html-keyboard-response","107","2.1.0","163025","F=YES, J=NO","ywqr1m39bx","0","78","75","80","","","","","","","","","","","","","","","",""
"null","audio/beep-329314.mp3","null","audio-keyboard-response","108","2.1.0","164561","F=YES, J=NO","ywqr1m39bx","0","78","75","80","","","","","","","","","","","","","","","",""
"null","audio/age1.wav","null","audio-keyboard-response","109","2.1.0","165111","F=YES, J=NO","ywqr1m39bx","0","78","75","80","","","","","","","","","","","","","","","",""
"567","
          <p id=""word"" style=""font-size: 40px;"">lachry</p>
          <p style=""font-size: 16px;"">F = YES &nbsp;&nbsp;&nbsp; J = NO</p>
        ","j","html-keyboard-response","110","2.1.0","165679","F=YES, J=NO","ywqr1m39bx","0","78","75","80","","","","","","","","","lachry","age1","pseudoword","pseudoword","j","true","",""
"null","<p style=""font-size: 50px;"">+</p>","null","html-keyboard-response","111","2.1.0","165995","F=YES, J=NO","ywqr1m39bx","0","78","75","80","","","","","","","","","","","","","","","",""
"null","audio/beep-329314.mp3","null","audio-keyboard-response","112","2.1.0","167521","F=YES, J=NO","ywqr1m39bx","0","78","75","80","","","","","","","","","","","","","","","",""
"null","audio/butter1.wav","null","audio-keyboard-response","113","2.1.0","167970","F=YES, J=NO","ywqr1m39bx","0","78","75","80","","","","","","","","","","","","","","","",""
"653","
          <p id=""word"" style=""font-size: 40px;"">chew</p>
          <p style=""font-size: 16px;"">F = YES &nbsp;&nbsp;&nbsp; J = NO</p>
        ","f","html-keyboard-response","114","2.1.0","168624","F=YES, J=NO","ywqr1m39bx","0","78","75","80","","","","","","","","","chew","butter1","filler","filler","f","true","",""
"1675","<p>Starting practice block 2 of 2. Press any key to continue.</p>","s","html-keyboard-response","115","2.1.0","170299","F=YES, J=NO","ywqr1m39bx","0","78","75","80","","","","","","","","","","","","","","","",""
"null","<p style=""font-size: 50px;"">+</p>","null","html-keyboard-response","116","2.1.0","170610","F=YES, J=NO","ywqr1m39bx","0","78","75","80","","","","","","","","","","","","","","","",""
"null","audio/beep-329314.mp3","null","audio-keyboard-response","117","2.1.0","172141","F=YES, J=NO","ywqr1m39bx","0","78","75","80","","","","","","","","","","","","","","","",""
"null","audio/bishop1.wav","null","audio-keyboard-response","118","2.1.0","172871","F=YES, J=NO","ywqr1m39bx","0","78","75","80","","","","","","","","","","","","","","","",""
"508","
          <p id=""word"" style=""font-size: 40px;"">play</p>
          <p style=""font-size: 16px;"">F = YES &nbsp;&nbsp;&nbsp; J = NO</p>
        ","f","html-keyboard-response","119","2.1.0","173380","F=YES, J=NO","ywqr1m39bx","0","78","75","80","","","","","","","","","play","bishop1","filler","filler","f","true","",""
"null","<p style=""font-size: 50px;"">+</p>","null","html-keyboard-response","120","2.1.0","173689","F=YES, J=NO","ywqr1m39bx","0","78","75","80","","","","","","","","","","","","","","","",""
"null","audio/beep-329314.mp3","null","audio-keyboard-response","121","2.1.0","175221","F=YES, J=NO","ywqr1m39bx","0","78","75","80","","","","","","","","","","","","","","","",""
"null","audio/baby.wav","null","audio-keyboard-response","122","2.1.0","175691","F=YES, J=NO","ywqr1m39bx","0","78","75","80","","","","","","","","","","","","","","","",""
"649","
          <p id=""word"" style=""font-size: 40px;"">lift</p>
          <p style=""font-size: 16px;"">F = YES &nbsp;&nbsp;&nbsp; J = NO</p>
        ","f","html-keyboard-response","123","2.1.0","176341","F=YES, J=NO","ywqr1m39bx","0","78","75","80","","","","","","","","","lift","baby","filler","filler","f","true","",""
"null","<p style=""font-size: 50px;"">+</p>","null","html-keyboard-response","124","2.1.0","176652","F=YES, J=NO","ywqr1m39bx","0","78","75","80","","","","","","","","","","","","","","","",""
"null","audio/beep-329314.mp3","null","audio-keyboard-response","125","2.1.0","178181","F=YES, J=NO","ywqr1m39bx","0","78","75","80","","","","","","","","","","","","","","","",""
"null","audio/scar.wav","null","audio-keyboard-response","126","2.1.0","178891","F=YES, J=NO","ywqr1m39bx","0","78","75","80","","","","","","","","","","","","","","","",""
"652","
          <p id=""word"" style=""font-size: 40px;"">adelineate</p>
          <p style=""font-size: 16px;"">F = YES &nbsp;&nbsp;&nbsp; J = NO</p>
        ","j","html-keyboard-response","127","2.1.0","179544","F=YES, J=NO","ywqr1m39bx","0","78","75","80","","","","","","","","","adelineate","scar","pseudoword","pseudoword","j","true","",""
"null","<p style=""font-size: 50px;"">+</p>","null","html-keyboard-response","128","2.1.0","179847","F=YES, J=NO","ywqr1m39bx","0","78","75","80","","","","","","","","","","","","","","","",""
"null","audio/beep-329314.mp3","null","audio-keyboard-response","129","2.1.0","181381","F=YES, J=NO","ywqr1m39bx","0","78","75","80","","","","","","","","","","","","","","","",""
"null","audio/pattern.wav","null","audio-keyboard-response","130","2.1.0","181891","F=YES, J=NO","ywqr1m39bx","0","78","75","80","","","","","","","","","","","","","","","",""
"621","
          <p id=""word"" style=""font-size: 40px;"">tug</p>
          <p style=""font-size: 16px;"">F = YES &nbsp;&nbsp;&nbsp; J = NO</p>
        ","j","html-keyboard-response","131","2.1.0","182512","F=YES, J=NO","ywqr1m39bx","0","78","75","80","","","","","","","","","tug","pattern","filler","filler","f","false","",""
"null","<p style=""font-size: 50px;"">+</p>","null","html-keyboard-response","132","2.1.0","182825","F=YES, J=NO","ywqr1m39bx","0","78","75","80","","","","","","","","","","","","","","","",""
"null","audio/beep-329314.mp3","null","audio-keyboard-response","133","2.1.0","184361","F=YES, J=NO","ywqr1m39bx","0","78","75","80","","","","","","","","","","","","","","","",""
"null","audio/strength.wav","null","audio-keyboard-response","134","2.1.0","185091","F=YES, J=NO","ywqr1m39bx","0","78","75","80","","","","","","","","","","","","","","","",""
"618","
          <p id=""word"" style=""font-size: 40px;"">plabet</p>
          <p style=""font-size: 16px;"">F = YES &nbsp;&nbsp;&nbsp; J = NO</p>
        ","j","html-keyboard-response","135","2.1.0","185710","F=YES, J=NO","ywqr1m39bx","0","78","75","80","","","","","","","","","plabet","strength","pseudoword","pseudoword","j","true","",""
"null","<p style=""font-size: 50px;"">+</p>","null","html-keyboard-response","136","2.1.0","186013","F=YES, J=NO","ywqr1m39bx","0","78","75","80","","","","","","","","","","","","","","","",""
"null","audio/beep-329314.mp3","null","audio-keyboard-response","137","2.1.0","187541","F=YES, J=NO","ywqr1m39bx","0","78","75","80","","","","","","","","","","","","","","","",""
"null","audio/cancer1.wav","null","audio-keyboard-response","138","2.1.0","188231","F=YES, J=NO","ywqr1m39bx","0","78","75","80","","","","","","","","","","","","","","","",""
"520","
          <p id=""word"" style=""font-size: 40px;"">draw</p>
          <p style=""font-size: 16px;"">F = YES &nbsp;&nbsp;&nbsp; J = NO</p>
        ","f","html-keyboard-response","139","2.1.0","188752","F=YES, J=NO","ywqr1m39bx","0","78","75","80","","","","","","","","","draw","cancer1","filler","filler","f","true","",""
"null","<p style=""font-size: 50px;"">+</p>","null","html-keyboard-response","140","2.1.0","189068","F=YES, J=NO","ywqr1m39bx","0","78","75","80","","","","","","","","","","","","","","","",""
"null","audio/beep-329314.mp3","null","audio-keyboard-response","141","2.1.0","190601","F=YES, J=NO","ywqr1m39bx","0","78","75","80","","","","","","","","","","","","","","","",""
"null","audio/pine.wav","null","audio-keyboard-response","142","2.1.0","191091","F=YES, J=NO","ywqr1m39bx","0","78","75","80","","","","","","","","","","","","","","","",""
"796","
          <p id=""word"" style=""font-size: 40px;"">crebble</p>
          <p style=""font-size: 16px;"">F = YES &nbsp;&nbsp;&nbsp; J = NO</p>
        ","f","html-keyboard-response","143","2.1.0","191888","F=YES, J=NO","ywqr1m39bx","0","78","75","80","","","","","","","","","crebble","pine","pseudoword","pseudoword","j","false","",""
"null","<p style=""font-size: 50px;"">+</p>","null","html-keyboard-response","144","2.1.0","192202","F=YES, J=NO","ywqr1m39bx","0","78","75","80","","","","","","","","","","","","","","","",""
"null","audio/beep-329314.mp3","null","audio-keyboard-response","145","2.1.0","193741","F=YES, J=NO","ywqr1m39bx","0","78","75","80","","","","","","","","","","","","","","","",""
"null","audio/breath.wav","null","audio-keyboard-response","146","2.1.0","194311","F=YES, J=NO","ywqr1m39bx","0","78","75","80","","","","","","","","","","","","","","","",""
"699","
          <p id=""word"" style=""font-size: 40px;"">pack</p>
          <p style=""font-size: 16px;"">F = YES &nbsp;&nbsp;&nbsp; J = NO</p>
        ","f","html-keyboard-response","147","2.1.0","195011","F=YES, J=NO","ywqr1m39bx","0","78","75","80","","","","","","","","","pack","breath","filler","filler","f","true","",""
"null","<p style=""font-size: 50px;"">+</p>","null","html-keyboard-response","148","2.1.0","195319","F=YES, J=NO","ywqr1m39bx","0","78","75","80","","","","","","","","","","","","","","","",""
"null","audio/beep-329314.mp3","null","audio-keyboard-response","149","2.1.0","196861","F=YES, J=NO","ywqr1m39bx","0","78","75","80","","","","","","","","","","","","","","","",""
"null","audio/heart1.wav","null","audio-keyboard-response","150","2.1.0","197490","F=YES, J=NO","ywqr1m39bx","0","78","75","80","","","","","","","","","","","","","","","",""
"622","
          <p id=""word"" style=""font-size: 40px;"">dralm</p>
          <p style=""font-size: 16px;"">F = YES &nbsp;&nbsp;&nbsp; J = NO</p>
        ","j","html-keyboard-response","151","2.1.0","198113","F=YES, J=NO","ywqr1m39bx","0","78","75","80","","","","","","","","","dralm","heart1","pseudoword","pseudoword","j","true","",""
"null","<p style=""font-size: 50px;"">+</p>","null","html-keyboard-response","152","2.1.0","198418","F=YES, J=NO","ywqr1m39bx","0","78","75","80","","","","","","","","","","","","","","","",""
"null","audio/beep-329314.mp3","null","audio-keyboard-response","153","2.1.0","199941","F=YES, J=NO","ywqr1m39bx","0","78","75","80","","","","","","","","","","","","","","","",""
"null","audio/roof1.wav","null","audio-keyboard-response","154","2.1.0","200491","F=YES, J=NO","ywqr1m39bx","0","78","75","80","","","","","","","","","","","","","","","",""
"650","
          <p id=""word"" style=""font-size: 40px;"">wronb</p>
          <p style=""font-size: 16px;"">F = YES &nbsp;&nbsp;&nbsp; J = NO</p>
        ","j","html-keyboard-response","155","2.1.0","201142","F=YES, J=NO","ywqr1m39bx","0","78","75","80","","","","","","","","","wronb","roof1","pseudoword","pseudoword","j","true","",""
"null","<p style=""font-size: 50px;"">+</p>","null","html-keyboard-response","156","2.1.0","201443","F=YES, J=NO","ywqr1m39bx","0","78","75","80","","","","","","","","","","","","","","","",""
"null","audio/beep-329314.mp3","null","audio-keyboard-response","157","2.1.0","202981","F=YES, J=NO","ywqr1m39bx","0","78","75","80","","","","","","","","","","","","","","","",""
"null","audio/dollar.wav","null","audio-keyboard-response","158","2.1.0","203370","F=YES, J=NO","ywqr1m39bx","0","78","75","80","","","","","","","","","","","","","","","",""
"771","
          <p id=""word"" style=""font-size: 40px;"">gliptism</p>
          <p style=""font-size: 16px;"">F = YES &nbsp;&nbsp;&nbsp; J = NO</p>
        ","j","html-keyboard-response","159","2.1.0","204143","F=YES, J=NO","ywqr1m39bx","0","78","75","80","","","","","","","","","gliptism","dollar","pseudoword","pseudoword","j","true","",""
"null","<p style=""font-size: 50px;"">+</p>","null","html-keyboard-response","160","2.1.0","204456","F=YES, J=NO","ywqr1m39bx","0","78","75","80","","","","","","","","","","","","","","","",""
"null","audio/beep-329314.mp3","null","audio-keyboard-response","161","2.1.0","205981","F=YES, J=NO","ywqr1m39bx","0","78","75","80","","","","","","","","","","","","","","","",""
"null","audio/gossip1.wav","null","audio-keyboard-response","162","2.1.0","206751","F=YES, J=NO","ywqr1m39bx","0","78","75","80","","","","","","","","","","","","","","","",""
"695","
          <p id=""word"" style=""font-size: 40px;"">camerish</p>
          <p style=""font-size: 16px;"">F = YES &nbsp;&nbsp;&nbsp; J = NO</p>
        ","f","html-keyboard-response","163","2.1.0","207448","F=YES, J=NO","ywqr1m39bx","0","78","75","80","","","","","","","","","camerish","gossip1","pseudoword","pseudoword","j","false","",""
"2959","
    <div style=""max-width: 800px; margin: auto; text-align: left;"">
      <h2>Part 2: Main Trials</h2>
      <p>Great job on the practice trials!</p>
      <p>You will now begin the <strong>main set of trials</strong>.</p>
      <p>Remember your key assignments:</p>
      <ul>
        <li><strong>F</strong> = YES (real English word)</li>
        <li><strong>J</strong> = NO (not a real English word)</li>
      </ul>
      <p>Try to respond as <strong>quickly and accurately</strong> as possible.</p>
      <p style=""margin-top: 2em;"">Press any key to begin the main trials.</p>
    </div>
  ","s","html-keyboard-response","164","2.1.0","210408","F=YES, J=NO","ywqr1m39bx","0","78","75","80","","","","","","","","","","","","","","","",""
"1503","<p>Starting main block 1 of 8. Press any key to continue.</p>","s","html-keyboard-response","165","2.1.0","211912","F=YES, J=NO","ywqr1m39bx","0","78","75","80","","","","","","","","","","","","","","","",""
"null","<p style=""font-size: 50px;"">+</p>","null","html-keyboard-response","166","2.1.0","212217","F=YES, J=NO","ywqr1m39bx","0","78","75","80","","","","","","","","","","","","","","","",""
"null","audio/beep-329314.mp3","null","audio-keyboard-response","167","2.1.0","213741","F=YES, J=NO","ywqr1m39bx","0","78","75","80","","","","","","","","","","","","","","","",""
"null","audio/winter.wav","null","audio-keyboard-response","168","2.1.0","214311","F=YES, J=NO","ywqr1m39bx","0","78","75","80","","","","","","","","","","","","","","","",""
"440","
          <p id=""word"" style=""font-size: 40px;"">expose</p>
          <p style=""font-size: 16px;"">F = YES &nbsp;&nbsp;&nbsp; J = NO</p>
        ","f","html-keyboard-response","169","2.1.0","214752","F=YES, J=NO","ywqr1m39bx","0","78","75","80","","","","","","","","","expose","winter","unrelated","experimental","f","true","",""
"null","<p style=""font-size: 50px;"">+</p>","null","html-keyboard-response","170","2.1.0","215065","F=YES, J=NO","ywqr1m39bx","0","78","75","80","","","","","","","","","","","","","","","",""
"null","audio/beep-329314.mp3","null","audio-keyboard-response","171","2.1.0","216601","F=YES, J=NO","ywqr1m39bx","0","78","75","80","","","","","","","","","","","","","","","",""
"null","audio/golf1.wav","null","audio-keyboard-response","172","2.1.0","217171","F=YES, J=NO","ywqr1m39bx","0","78","75","80","","","","","","","","","","","","","","","",""
"642","
          <p id=""word"" style=""font-size: 40px;"">drabble</p>
          <p style=""font-size: 16px;"">F = YES &nbsp;&nbsp;&nbsp; J = NO</p>
        ","j","html-keyboard-response","173","2.1.0","217814","F=YES, J=NO","ywqr1m39bx","0","78","75","80","","","","","","","","","drabble","golf1","pseudoword","pseudoword","j","true","",""
"null","<p style=""font-size: 50px;"">+</p>","null","html-keyboard-response","174","2.1.0","218124","F=YES, J=NO","ywqr1m39bx","0","78","75","80","","","","","","","","","","","","","","","",""
"null","audio/beep-329314.mp3","null","audio-keyboard-response","175","2.1.0","219661","F=YES, J=NO","ywqr1m39bx","0","78","75","80","","","","","","","","","","","","","","","",""
"null","audio/birth1.wav","null","audio-keyboard-response","176","2.1.0","220211","F=YES, J=NO","ywqr1m39bx","0","78","75","80","","","","","","","","","","","","","","","",""
"576","
          <p id=""word"" style=""font-size: 40px;"">peel</p>
          <p style=""font-size: 16px;"">F = YES &nbsp;&nbsp;&nbsp; J = NO</p>
        ","f","html-keyboard-response","177","2.1.0","220789","F=YES, J=NO","ywqr1m39bx","0","78","75","80","","","","","","","","","peel","birth1","filler","filler","f","true","",""
"null","<p style=""font-size: 50px;"">+</p>","null","html-keyboard-response","178","2.1.0","221099","F=YES, J=NO","ywqr1m39bx","0","78","75","80","","","","","","","","","","","","","","","",""
"null","audio/beep-329314.mp3","null","audio-keyboard-response","179","2.1.0","222621","F=YES, J=NO","ywqr1m39bx","0","78","75","80","","","","","","","","","","","","","","","",""
"null","audio/haste1.wav","null","audio-keyboard-response","180","2.1.0","223191","F=YES, J=NO","ywqr1m39bx","0","78","75","80","","","","","","","","","","","","","","","",""
"462","
          <p id=""word"" style=""font-size: 40px;"">hide</p>
          <p style=""font-size: 16px;"">F = YES &nbsp;&nbsp;&nbsp; J = NO</p>
        ","f","html-keyboard-response","181","2.1.0","223655","F=YES, J=NO","ywqr1m39bx","0","78","75","80","","","","","","","","","hide","haste1","unrelated","experimental","f","true","",""
"null","<p style=""font-size: 50px;"">+</p>","null","html-keyboard-response","182","2.1.0","223967","F=YES, J=NO","ywqr1m39bx","0","78","75","80","","","","","","","","","","","","","","","",""
"null","audio/beep-329314.mp3","null","audio-keyboard-response","183","2.1.0","225501","F=YES, J=NO","ywqr1m39bx","0","78","75","80","","","","","","","","","","","","","","","",""
"null","audio/flaw.wav","null","audio-keyboard-response","184","2.1.0","226131","F=YES, J=NO","ywqr1m39bx","0","78","75","80","","","","","","","","","","","","","","","",""
"544","
          <p id=""word"" style=""font-size: 40px;"">thwool</p>
          <p style=""font-size: 16px;"">F = YES &nbsp;&nbsp;&nbsp; J = NO</p>
        ","j","html-keyboard-response","185","2.1.0","226676","F=YES, J=NO","ywqr1m39bx","0","78","75","80","","","","","","","","","thwool","flaw","pseudoword","pseudoword","j","true","",""
"null","<p style=""font-size: 50px;"">+</p>","null","html-keyboard-response","186","2.1.0","226978","F=YES, J=NO","ywqr1m39bx","0","78","75","80","","","","","","","","","","","","","","","",""
"null","audio/beep-329314.mp3","null","audio-keyboard-response","187","2.1.0","228501","F=YES, J=NO","ywqr1m39bx","0","78","75","80","","","","","","","","","","","","","","","",""
"null","audio/test1.wav","null","audio-keyboard-response","188","2.1.0","229070","F=YES, J=NO","ywqr1m39bx","0","78","75","80","","","","","","","","","","","","","","","",""
"465","
          <p id=""word"" style=""font-size: 40px;"">run</p>
          <p style=""font-size: 16px;"">F = YES &nbsp;&nbsp;&nbsp; J = NO</p>
        ","f","html-keyboard-response","189","2.1.0","229536","F=YES, J=NO","ywqr1m39bx","0","78","75","80","","","","","","","","","run","test1","metaphor","experimental","f","true","",""
"null","<p style=""font-size: 50px;"">+</p>","null","html-keyboard-response","190","2.1.0","229838","F=YES, J=NO","ywqr1m39bx","0","78","75","80","","","","","","","","","","","","","","","",""
"null","audio/beep-329314.mp3","null","audio-keyboard-response","191","2.1.0","231361","F=YES, J=NO","ywqr1m39bx","0","78","75","80","","","","","","","","","","","","","","","",""
"null","audio/cash1.wav","null","audio-keyboard-response","192","2.1.0","231930","F=YES, J=NO","ywqr1m39bx","0","78","75","80","","","","","","","","","","","","","","","",""
"505","
          <p id=""word"" style=""font-size: 40px;"">invest</p>
          <p style=""font-size: 16px;"">F = YES &nbsp;&nbsp;&nbsp; J = NO</p>
        ","f","html-keyboard-response","193","2.1.0","232436","F=YES, J=NO","ywqr1m39bx","0","78","75","80","","","","","","","","","invest","cash1","literal","experimental","f","true","",""
"null","<p style=""font-size: 50px;"">+</p>","null","html-keyboard-response","194","2.1.0","232738","F=YES, J=NO","ywqr1m39bx","0","78","75","80","","","","","","","","","","","","","","","",""
"null","audio/beep-329314.mp3","null","audio-keyboard-response","195","2.1.0","234261","F=YES, J=NO","ywqr1m39bx","0","78","75","80","","","","","","","","","","","","","","","",""
"null","audio/ship.wav","null","audio-keyboard-response","196","2.1.0","234811","F=YES, J=NO","ywqr1m39bx","0","78","75","80","","","","","","","","","","","","","","","",""
"652","
          <p id=""word"" style=""font-size: 40px;"">scrap</p>
          <p style=""font-size: 16px;"">F = YES &nbsp;&nbsp;&nbsp; J = NO</p>
        ","f","html-keyboard-response","197","2.1.0","235463","F=YES, J=NO","ywqr1m39bx","0","78","75","80","","","","","","","","","scrap","ship","literal","experimental","f","true","",""
"null","<p style=""font-size: 50px;"">+</p>","null","html-keyboard-response","198","2.1.0","235771","F=YES, J=NO","ywqr1m39bx","0","78","75","80","","","","","","","","","","","","","","","",""
"null","audio/beep-329314.mp3","null","audio-keyboard-response","199","2.1.0","237301","F=YES, J=NO","ywqr1m39bx","0","78","75","80","","","","","","","","","","","","","","","",""
"null","audio/theory1.wav","null","audio-keyboard-response","200","2.1.0","237951","F=YES, J=NO","ywqr1m39bx","0","78","75","80","","","","","","","","","","","","","","","",""
"648","
          <p id=""word"" style=""font-size: 40px;"">scolve</p>
          <p style=""font-size: 16px;"">F = YES &nbsp;&nbsp;&nbsp; J = NO</p>
        ","f","html-keyboard-response","201","2.1.0","238600","F=YES, J=NO","ywqr1m39bx","0","78","75","80","","","","","","","","","scolve","theory1","pseudoword","pseudoword","j","false","",""
"null","<p style=""font-size: 50px;"">+</p>","null","html-keyboard-response","202","2.1.0","238904","F=YES, J=NO","ywqr1m39bx","0","78","75","80","","","","","","","","","","","","","","","",""
"null","audio/beep-329314.mp3","null","audio-keyboard-response","203","2.1.0","240441","F=YES, J=NO","ywqr1m39bx","0","78","75","80","","","","","","","","","","","","","","","",""
"null","audio/prisoner.wav","null","audio-keyboard-response","204","2.1.0","240950","F=YES, J=NO","ywqr1m39bx","0","78","75","80","","","","","","","","","","","","","","","",""
"576","
          <p id=""word"" style=""font-size: 40px;"">egotian</p>
          <p style=""font-size: 16px;"">F = YES &nbsp;&nbsp;&nbsp; J = NO</p>
        ","j","html-keyboard-response","205","2.1.0","241528","F=YES, J=NO","ywqr1m39bx","0","78","75","80","","","","","","","","","egotian","prisoner","pseudoword","pseudoword","j","true","",""
"null","<p style=""font-size: 50px;"">+</p>","null","html-keyboard-response","206","2.1.0","241844","F=YES, J=NO","ywqr1m39bx","0","78","75","80","","","","","","","","","","","","","","","",""
"null","audio/beep-329314.mp3","null","audio-keyboard-response","207","2.1.0","243381","F=YES, J=NO","ywqr1m39bx","0","78","75","80","","","","","","","","","","","","","","","",""
"null","audio/van1.wav","null","audio-keyboard-response","208","2.1.0","243891","F=YES, J=NO","ywqr1m39bx","0","78","75","80","","","","","","","","","","","","","","","",""
"488","
          <p id=""word"" style=""font-size: 40px;"">support</p>
          <p style=""font-size: 16px;"">F = YES &nbsp;&nbsp;&nbsp; J = NO</p>
        ","f","html-keyboard-response","209","2.1.0","244380","F=YES, J=NO","ywqr1m39bx","0","78","75","80","","","","","","","","","support","van1","unrelated","experimental","f","true","",""
"null","<p style=""font-size: 50px;"">+</p>","null","html-keyboard-response","210","2.1.0","244686","F=YES, J=NO","ywqr1m39bx","0","78","75","80","","","","","","","","","","","","","","","",""
"null","audio/beep-329314.mp3","null","audio-keyboard-response","211","2.1.0","246221","F=YES, J=NO","ywqr1m39bx","0","78","75","80","","","","","","","","","","","","","","","",""
"null","audio/plot1.wav","null","audio-keyboard-response","212","2.1.0","246771","F=YES, J=NO","ywqr1m39bx","0","78","75","80","","","","","","","","","","","","","","","",""
"571","
          <p id=""word"" style=""font-size: 40px;"">glenter</p>
          <p style=""font-size: 16px;"">F = YES &nbsp;&nbsp;&nbsp; J = NO</p>
        ","j","html-keyboard-response","213","2.1.0","247342","F=YES, J=NO","ywqr1m39bx","0","78","75","80","","","","","","","","","glenter","plot1","pseudoword","pseudoword","j","true","",""
"null","<p style=""font-size: 50px;"">+</p>","null","html-keyboard-response","214","2.1.0","247650","F=YES, J=NO","ywqr1m39bx","0","78","75","80","","","","","","","","","","","","","","","",""
"null","audio/beep-329314.mp3","null","audio-keyboard-response","215","2.1.0","249181","F=YES, J=NO","ywqr1m39bx","0","78","75","80","","","","","","","","","","","","","","","",""
"null","audio/dome.wav","null","audio-keyboard-response","216","2.1.0","249611","F=YES, J=NO","ywqr1m39bx","0","78","75","80","","","","","","","","","","","","","","","",""
"643","
          <p id=""word"" style=""font-size: 40px;"">scrupliness</p>
          <p style=""font-size: 16px;"">F = YES &nbsp;&nbsp;&nbsp; J = NO</p>
        ","j","html-keyboard-response","217","2.1.0","250255","F=YES, J=NO","ywqr1m39bx","0","78","75","80","","","","","","","","","scrupliness","dome","pseudoword","pseudoword","j","true","",""
"null","<p style=""font-size: 50px;"">+</p>","null","html-keyboard-response","218","2.1.0","250558","F=YES, J=NO","ywqr1m39bx","0","78","75","80","","","","","","","","","","","","","","","",""
"null","audio/beep-329314.mp3","null","audio-keyboard-response","219","2.1.0","252081","F=YES, J=NO","ywqr1m39bx","0","78","75","80","","","","","","","","","","","","","","","",""
"null","audio/survey1.wav","null","audio-keyboard-response","220","2.1.0","252811","F=YES, J=NO","ywqr1m39bx","0","78","75","80","","","","","","","","","","","","","","","",""
"628","
          <p id=""word"" style=""font-size: 40px;"">imploth</p>
          <p style=""font-size: 16px;"">F = YES &nbsp;&nbsp;&nbsp; J = NO</p>
        ","j","html-keyboard-response","221","2.1.0","253439","F=YES, J=NO","ywqr1m39bx","0","78","75","80","","","","","","","","","imploth","survey1","pseudoword","pseudoword","j","true","",""
"null","<p style=""font-size: 50px;"">+</p>","null","html-keyboard-response","222","2.1.0","253755","F=YES, J=NO","ywqr1m39bx","0","78","75","80","","","","","","","","","","","","","","","",""
"null","audio/beep-329314.mp3","null","audio-keyboard-response","223","2.1.0","255281","F=YES, J=NO","ywqr1m39bx","0","78","75","80","","","","","","","","","","","","","","","",""
"null","audio/effort.wav","null","audio-keyboard-response","224","2.1.0","255871","F=YES, J=NO","ywqr1m39bx","0","78","75","80","","","","","","","","","","","","","","","",""
"574","
          <p id=""word"" style=""font-size: 40px;"">whonk</p>
          <p style=""font-size: 16px;"">F = YES &nbsp;&nbsp;&nbsp; J = NO</p>
        ","f","html-keyboard-response","225","2.1.0","256446","F=YES, J=NO","ywqr1m39bx","0","78","75","80","","","","","","","","","whonk","effort","pseudoword","pseudoword","j","false","",""
"null","<p style=""font-size: 50px;"">+</p>","null","html-keyboard-response","226","2.1.0","256759","F=YES, J=NO","ywqr1m39bx","0","78","75","80","","","","","","","","","","","","","","","",""
"null","audio/beep-329314.mp3","null","audio-keyboard-response","227","2.1.0","258301","F=YES, J=NO","ywqr1m39bx","0","78","75","80","","","","","","","","","","","","","","","",""
"null","audio/budget1.wav","null","audio-keyboard-response","228","2.1.0","258911","F=YES, J=NO","ywqr1m39bx","0","78","75","80","","","","","","","","","","","","","","","",""
"611","
          <p id=""word"" style=""font-size: 40px;"">sulist</p>
          <p style=""font-size: 16px;"">F = YES &nbsp;&nbsp;&nbsp; J = NO</p>
        ","j","html-keyboard-response","229","2.1.0","259523","F=YES, J=NO","ywqr1m39bx","0","78","75","80","","","","","","","","","sulist","budget1","pseudoword","pseudoword","j","true","",""
"1610","<p>Excellent! You have finished block 1 of 8.</p>
                     <p>Feel free to take a 30 second break.</p>
                     <p>Press any key when you're ready to continue.</p>","s","html-keyboard-response","230","2.1.0","261135","F=YES, J=NO","ywqr1m39bx","0","78","75","80","","","","","","","","","","","","","","","",""
"721","<p>Starting main block 2 of 8. Press any key to continue.</p>","s","html-keyboard-response","231","2.1.0","261856","F=YES, J=NO","ywqr1m39bx","0","78","75","80","","","","","","","","","","","","","","","",""
"null","<p style=""font-size: 50px;"">+</p>","null","html-keyboard-response","232","2.1.0","262165","F=YES, J=NO","ywqr1m39bx","0","78","75","80","","","","","","","","","","","","","","","",""
"null","audio/beep-329314.mp3","null","audio-keyboard-response","233","2.1.0","263701","F=YES, J=NO","ywqr1m39bx","0","78","75","80","","","","","","","","","","","","","","","",""
"null","audio/ankle1.wav","null","audio-keyboard-response","234","2.1.0","264211","F=YES, J=NO","ywqr1m39bx","0","78","75","80","","","","","","","","","","","","","","","",""
"538","
          <p id=""word"" style=""font-size: 40px;"">switm</p>
          <p style=""font-size: 16px;"">F = YES &nbsp;&nbsp;&nbsp; J = NO</p>
        ","j","html-keyboard-response","235","2.1.0","264750","F=YES, J=NO","ywqr1m39bx","0","78","75","80","","","","","","","","","switm","ankle1","pseudoword","pseudoword","j","true","",""
"null","<p style=""font-size: 50px;"">+</p>","null","html-keyboard-response","236","2.1.0","265054","F=YES, J=NO","ywqr1m39bx","0","78","75","80","","","","","","","","","","","","","","","",""
"null","audio/beep-329314.mp3","null","audio-keyboard-response","237","2.1.0","266581","F=YES, J=NO","ywqr1m39bx","0","78","75","80","","","","","","","","","","","","","","","",""
"null","audio/radio1.wav","null","audio-keyboard-response","238","2.1.0","267171","F=YES, J=NO","ywqr1m39bx","0","78","75","80","","","","","","","","","","","","","","","",""
"539","
          <p id=""word"" style=""font-size: 40px;"">blanter</p>
          <p style=""font-size: 16px;"">F = YES &nbsp;&nbsp;&nbsp; J = NO</p>
        ","f","html-keyboard-response","239","2.1.0","267711","F=YES, J=NO","ywqr1m39bx","0","78","75","80","","","","","","","","","blanter","radio1","pseudoword","pseudoword","j","false","",""
"null","<p style=""font-size: 50px;"">+</p>","null","html-keyboard-response","240","2.1.0","268025","F=YES, J=NO","ywqr1m39bx","0","78","75","80","","","","","","","","","","","","","","","",""
"null","audio/beep-329314.mp3","null","audio-keyboard-response","241","2.1.0","269560","F=YES, J=NO","ywqr1m39bx","0","78","75","80","","","","","","","","","","","","","","","",""
"null","audio/heart1.wav","null","audio-keyboard-response","242","2.1.0","270170","F=YES, J=NO","ywqr1m39bx","0","78","75","80","","","","","","","","","","","","","","","",""
"535","
          <p id=""word"" style=""font-size: 40px;"">touch</p>
          <p style=""font-size: 16px;"">F = YES &nbsp;&nbsp;&nbsp; J = NO</p>
        ","f","html-keyboard-response","243","2.1.0","270706","F=YES, J=NO","ywqr1m39bx","0","78","75","80","","","","","","","","","touch","heart1","metaphor","experimental","f","true","",""
"null","<p style=""font-size: 50px;"">+</p>","null","html-keyboard-response","244","2.1.0","271020","F=YES, J=NO","ywqr1m39bx","0","78","75","80","","","","","","","","","","","","","","","",""
"null","audio/beep-329314.mp3","null","audio-keyboard-response","245","2.1.0","272561","F=YES, J=NO","ywqr1m39bx","0","78","75","80","","","","","","","","","","","","","","","",""
"null","audio/fence.wav","null","audio-keyboard-response","246","2.1.0","273211","F=YES, J=NO","ywqr1m39bx","0","78","75","80","","","","","","","","","","","","","","","",""
"523","
          <p id=""word"" style=""font-size: 40px;"">trim</p>
          <p style=""font-size: 16px;"">F = YES &nbsp;&nbsp;&nbsp; J = NO</p>
        ","f","html-keyboard-response","247","2.1.0","273734","F=YES, J=NO","ywqr1m39bx","0","78","75","80","","","","","","","","","trim","fence","filler","filler","f","true","",""
"null","<p style=""font-size: 50px;"">+</p>","null","html-keyboard-response","248","2.1.0","274048","F=YES, J=NO","ywqr1m39bx","0","78","75","80","","","","","","","","","","","","","","","",""
"null","audio/beep-329314.mp3","null","audio-keyboard-response","249","2.1.0","275581","F=YES, J=NO","ywqr1m39bx","0","78","75","80","","","","","","","","","","","","","","","",""
"null","audio/kettle1.wav","null","audio-keyboard-response","250","2.1.0","276051","F=YES, J=NO","ywqr1m39bx","0","78","75","80","","","","","","","","","","","","","","","",""
"468","
          <p id=""word"" style=""font-size: 40px;"">wrap</p>
          <p style=""font-size: 16px;"">F = YES &nbsp;&nbsp;&nbsp; J = NO</p>
        ","f","html-keyboard-response","251","2.1.0","276520","F=YES, J=NO","ywqr1m39bx","0","78","75","80","","","","","","","","","wrap","kettle1","filler","filler","f","true","",""
"null","<p style=""font-size: 50px;"">+</p>","null","html-keyboard-response","252","2.1.0","276824","F=YES, J=NO","ywqr1m39bx","0","78","75","80","","","","","","","","","","","","","","","",""
"null","audio/beep-329314.mp3","null","audio-keyboard-response","253","2.1.0","278361","F=YES, J=NO","ywqr1m39bx","0","78","75","80","","","","","","","","","","","","","","","",""
"null","audio/fortune1.wav","null","audio-keyboard-response","254","2.1.0","279131","F=YES, J=NO","ywqr1m39bx","0","78","75","80","","","","","","","","","","","","","","","",""
"478","
          <p id=""word"" style=""font-size: 40px;"">spend</p>
          <p style=""font-size: 16px;"">F = YES &nbsp;&nbsp;&nbsp; J = NO</p>
        ","f","html-keyboard-response","255","2.1.0","279609","F=YES, J=NO","ywqr1m39bx","0","78","75","80","","","","","","","","","spend","fortune1","literal","experimental","f","true","",""
"null","<p style=""font-size: 50px;"">+</p>","null","html-keyboard-response","256","2.1.0","279913","F=YES, J=NO","ywqr1m39bx","0","78","75","80","","","","","","","","","","","","","","","",""
"null","audio/beep-329314.mp3","null","audio-keyboard-response","257","2.1.0","281441","F=YES, J=NO","ywqr1m39bx","0","78","75","80","","","","","","","","","","","","","","","",""
"null","audio/novel.wav","null","audio-keyboard-response","258","2.1.0","281930","F=YES, J=NO","ywqr1m39bx","0","78","75","80","","","","","","","","","","","","","","","",""
"444","
          <p id=""word"" style=""font-size: 40px;"">type</p>
          <p style=""font-size: 16px;"">F = YES &nbsp;&nbsp;&nbsp; J = NO</p>
        ","f","html-keyboard-response","259","2.1.0","282375","F=YES, J=NO","ywqr1m39bx","0","78","75","80","","","","","","","","","type","novel","filler","filler","f","true","",""
"null","<p style=""font-size: 50px;"">+</p>","null","html-keyboard-response","260","2.1.0","282692","F=YES, J=NO","ywqr1m39bx","0","78","75","80","","","","","","","","","","","","","","","",""
"null","audio/beep-329314.mp3","null","audio-keyboard-response","261","2.1.0","284221","F=YES, J=NO","ywqr1m39bx","0","78","75","80","","","","","","","","","","","","","","","",""
"null","audio/noise1.wav","null","audio-keyboard-response","262","2.1.0","284831","F=YES, J=NO","ywqr1m39bx","0","78","75","80","","","","","","","","","","","","","","","",""
"504","
          <p id=""word"" style=""font-size: 40px;"">slintered</p>
          <p style=""font-size: 16px;"">F = YES &nbsp;&nbsp;&nbsp; J = NO</p>
        ","j","html-keyboard-response","263","2.1.0","285335","F=YES, J=NO","ywqr1m39bx","0","78","75","80","","","","","","","","","slintered","noise1","pseudoword","pseudoword","j","true","",""
"null","<p style=""font-size: 50px;"">+</p>","null","html-keyboard-response","264","2.1.0","285637","F=YES, J=NO","ywqr1m39bx","0","78","75","80","","","","","","","","","","","","","","","",""
"null","audio/beep-329314.mp3","null","audio-keyboard-response","265","2.1.0","287161","F=YES, J=NO","ywqr1m39bx","0","78","75","80","","","","","","","","","","","","","","","",""
"null","audio/vehicle1.wav","null","audio-keyboard-response","266","2.1.0","287811","F=YES, J=NO","ywqr1m39bx","0","78","75","80","","","","","","","","","","","","","","","",""
"593","
          <p id=""word"" style=""font-size: 40px;"">dropt</p>
          <p style=""font-size: 16px;"">F = YES &nbsp;&nbsp;&nbsp; J = NO</p>
        ","j","html-keyboard-response","267","2.1.0","288404","F=YES, J=NO","ywqr1m39bx","0","78","75","80","","","","","","","","","dropt","vehicle1","pseudoword","pseudoword","j","true","",""
"null","<p style=""font-size: 50px;"">+</p>","null","html-keyboard-response","268","2.1.0","288716","F=YES, J=NO","ywqr1m39bx","0","78","75","80","","","","","","","","","","","","","","","",""
"null","audio/beep-329314.mp3","null","audio-keyboard-response","269","2.1.0","290240","F=YES, J=NO","ywqr1m39bx","0","78","75","80","","","","","","","","","","","","","","","",""
"null","audio/hawk1.wav","null","audio-keyboard-response","270","2.1.0","290831","F=YES, J=NO","ywqr1m39bx","0","78","75","80","","","","","","","","","","","","","","","",""
"527","
          <p id=""word"" style=""font-size: 40px;"">ostach</p>
          <p style=""font-size: 16px;"">F = YES &nbsp;&nbsp;&nbsp; J = NO</p>
        ","j","html-keyboard-response","271","2.1.0","291359","F=YES, J=NO","ywqr1m39bx","0","78","75","80","","","","","","","","","ostach","hawk1","pseudoword","pseudoword","j","true","",""
"null","<p style=""font-size: 50px;"">+</p>","null","html-keyboard-response","272","2.1.0","291662","F=YES, J=NO","ywqr1m39bx","0","78","75","80","","","","","","","","","","","","","","","",""
"null","audio/beep-329314.mp3","null","audio-keyboard-response","273","2.1.0","293200","F=YES, J=NO","ywqr1m39bx","0","78","75","80","","","","","","","","","","","","","","","",""
"null","audio/client1.wav","null","audio-keyboard-response","274","2.1.0","293891","F=YES, J=NO","ywqr1m39bx","0","78","75","80","","","","","","","","","","","","","","","",""
"496","
          <p id=""word"" style=""font-size: 40px;"">land</p>
          <p style=""font-size: 16px;"">F = YES &nbsp;&nbsp;&nbsp; J = NO</p>
        ","f","html-keyboard-response","275","2.1.0","294388","F=YES, J=NO","ywqr1m39bx","0","78","75","80","","","","","","","","","land","client1","metaphor","experimental","f","true","",""
"null","<p style=""font-size: 50px;"">+</p>","null","html-keyboard-response","276","2.1.0","294702","F=YES, J=NO","ywqr1m39bx","0","78","75","80","","","","","","","","","","","","","","","",""
"null","audio/beep-329314.mp3","null","audio-keyboard-response","277","2.1.0","296241","F=YES, J=NO","ywqr1m39bx","0","78","75","80","","","","","","","","","","","","","","","",""
"null","audio/brain.wav","null","audio-keyboard-response","278","2.1.0","296730","F=YES, J=NO","ywqr1m39bx","0","78","75","80","","","","","","","","","","","","","","","",""
"497","
          <p id=""word"" style=""font-size: 40px;"">flood</p>
          <p style=""font-size: 16px;"">F = YES &nbsp;&nbsp;&nbsp; J = NO</p>
        ","f","html-keyboard-response","279","2.1.0","297228","F=YES, J=NO","ywqr1m39bx","0","78","75","80","","","","","","","","","flood","brain","metaphor","experimental","f","true","",""
"null","<p style=""font-size: 50px;"">+</p>","null","html-keyboard-response","280","2.1.0","297536","F=YES, J=NO","ywqr1m39bx","0","78","75","80","","","","","","","","","","","","","","","",""
"null","audio/beep-329314.mp3","null","audio-keyboard-response","281","2.1.0","299061","F=YES, J=NO","ywqr1m39bx","0","78","75","80","","","","","","","","","","","","","","","",""
"null","audio/planet1.wav","null","audio-keyboard-response","282","2.1.0","299651","F=YES, J=NO","ywqr1m39bx","0","78","75","80","","","","","","","","","","","","","","","",""
"598","
          <p id=""word"" style=""font-size: 40px;"">cratched</p>
          <p style=""font-size: 16px;"">F = YES &nbsp;&nbsp;&nbsp; J = NO</p>
        ","f","html-keyboard-response","283","2.1.0","300249","F=YES, J=NO","ywqr1m39bx","0","78","75","80","","","","","","","","","cratched","planet1","pseudoword","pseudoword","j","false","",""
"null","<p style=""font-size: 50px;"">+</p>","null","html-keyboard-response","284","2.1.0","300565","F=YES, J=NO","ywqr1m39bx","0","78","75","80","","","","","","","","","","","","","","","",""
"null","audio/beep-329314.mp3","null","audio-keyboard-response","285","2.1.0","302101","F=YES, J=NO","ywqr1m39bx","0","78","75","80","","","","","","","","","","","","","","","",""
"null","audio/mouth1.wav","null","audio-keyboard-response","286","2.1.0","302671","F=YES, J=NO","ywqr1m39bx","0","78","75","80","","","","","","","","","","","","","","","",""
"559","
          <p id=""word"" style=""font-size: 40px;"">spolial</p>
          <p style=""font-size: 16px;"">F = YES &nbsp;&nbsp;&nbsp; J = NO</p>
        ","j","html-keyboard-response","287","2.1.0","303230","F=YES, J=NO","ywqr1m39bx","0","78","75","80","","","","","","","","","spolial","mouth1","pseudoword","pseudoword","j","true","",""
"null","<p style=""font-size: 50px;"">+</p>","null","html-keyboard-response","288","2.1.0","303535","F=YES, J=NO","ywqr1m39bx","0","78","75","80","","","","","","","","","","","","","","","",""
"null","audio/beep-329314.mp3","null","audio-keyboard-response","289","2.1.0","305061","F=YES, J=NO","ywqr1m39bx","0","78","75","80","","","","","","","","","","","","","","","",""
"null","audio/road.wav","null","audio-keyboard-response","290","2.1.0","305490","F=YES, J=NO","ywqr1m39bx","0","78","75","80","","","","","","","","","","","","","","","",""
"574","
          <p id=""word"" style=""font-size: 40px;"">wappings</p>
          <p style=""font-size: 16px;"">F = YES &nbsp;&nbsp;&nbsp; J = NO</p>
        ","j","html-keyboard-response","291","2.1.0","306065","F=YES, J=NO","ywqr1m39bx","0","78","75","80","","","","","","","","","wappings","road","pseudoword","pseudoword","j","true","",""
"null","<p style=""font-size: 50px;"">+</p>","null","html-keyboard-response","292","2.1.0","306374","F=YES, J=NO","ywqr1m39bx","0","78","75","80","","","","","","","","","","","","","","","",""
"null","audio/beep-329314.mp3","null","audio-keyboard-response","293","2.1.0","307901","F=YES, J=NO","ywqr1m39bx","0","78","75","80","","","","","","","","","","","","","","","",""
"null","audio/life1.wav","null","audio-keyboard-response","294","2.1.0","308470","F=YES, J=NO","ywqr1m39bx","0","78","75","80","","","","","","","","","","","","","","","",""
"663","
          <p id=""word"" style=""font-size: 40px;"">flimch</p>
          <p style=""font-size: 16px;"">F = YES &nbsp;&nbsp;&nbsp; J = NO</p>
        ","j","html-keyboard-response","295","2.1.0","309134","F=YES, J=NO","ywqr1m39bx","0","78","75","80","","","","","","","","","flimch","life1","pseudoword","pseudoword","j","true","",""
"1678","<p>Excellent! You have finished block 2 of 8.</p>
                     <p>Feel free to take a 30 second break.</p>
                     <p>Press any key when you're ready to continue.</p>","s","html-keyboard-response","296","2.1.0","310813","F=YES, J=NO","ywqr1m39bx","0","78","75","80","","","","","","","","","","","","","","","",""
"396","<p>Starting main block 3 of 8. Press any key to continue.</p>","s","html-keyboard-response","297","2.1.0","311210","F=YES, J=NO","ywqr1m39bx","0","78","75","80","","","","","","","","","","","","","","","",""
"null","<p style=""font-size: 50px;"">+</p>","null","html-keyboard-response","298","2.1.0","311512","F=YES, J=NO","ywqr1m39bx","0","78","75","80","","","","","","","","","","","","","","","",""
"null","audio/beep-329314.mp3","null","audio-keyboard-response","299","2.1.0","313041","F=YES, J=NO","ywqr1m39bx","0","78","75","80","","","","","","","","","","","","","","","",""
"null","audio/butter1.wav","null","audio-keyboard-response","300","2.1.0","313471","F=YES, J=NO","ywqr1m39bx","0","78","75","80","","","","","","","","","","","","","","","",""
"526","
          <p id=""word"" style=""font-size: 40px;"">spread</p>
          <p style=""font-size: 16px;"">F = YES &nbsp;&nbsp;&nbsp; J = NO</p>
        ","f","html-keyboard-response","301","2.1.0","313997","F=YES, J=NO","ywqr1m39bx","0","78","75","80","","","","","","","","","spread","butter1","literal","experimental","f","true","",""
"null","<p style=""font-size: 50px;"">+</p>","null","html-keyboard-response","302","2.1.0","314308","F=YES, J=NO","ywqr1m39bx","0","78","75","80","","","","","","","","","","","","","","","",""
"null","audio/beep-329314.mp3","null","audio-keyboard-response","303","2.1.0","315840","F=YES, J=NO","ywqr1m39bx","0","78","75","80","","","","","","","","","","","","","","","",""
"null","audio/trust.wav","null","audio-keyboard-response","304","2.1.0","316470","F=YES, J=NO","ywqr1m39bx","0","78","75","80","","","","","","","","","","","","","","","",""
"459","
          <p id=""word"" style=""font-size: 40px;"">build</p>
          <p style=""font-size: 16px;"">F = YES &nbsp;&nbsp;&nbsp; J = NO</p>
        ","f","html-keyboard-response","305","2.1.0","316930","F=YES, J=NO","ywqr1m39bx","0","78","75","80","","","","","","","","","build","trust","metaphor","experimental","f","true","",""
"null","<p style=""font-size: 50px;"">+</p>","null","html-keyboard-response","306","2.1.0","317237","F=YES, J=NO","ywqr1m39bx","0","78","75","80","","","","","","","","","","","","","","","",""
"null","audio/beep-329314.mp3","null","audio-keyboard-response","307","2.1.0","318761","F=YES, J=NO","ywqr1m39bx","0","78","75","80","","","","","","","","","","","","","","","",""
"null","audio/train.wav","null","audio-keyboard-response","308","2.1.0","319271","F=YES, J=NO","ywqr1m39bx","0","78","75","80","","","","","","","","","","","","","","","",""
"444","
          <p id=""word"" style=""font-size: 40px;"">catch</p>
          <p style=""font-size: 16px;"">F = YES &nbsp;&nbsp;&nbsp; J = NO</p>
        ","f","html-keyboard-response","309","2.1.0","319716","F=YES, J=NO","ywqr1m39bx","0","78","75","80","","","","","","","","","catch","train","metaphor","experimental","f","true","",""
"null","<p style=""font-size: 50px;"">+</p>","null","html-keyboard-response","310","2.1.0","320019","F=YES, J=NO","ywqr1m39bx","0","78","75","80","","","","","","","","","","","","","","","",""
"null","audio/beep-329314.mp3","null","audio-keyboard-response","311","2.1.0","321561","F=YES, J=NO","ywqr1m39bx","0","78","75","80","","","","","","","","","","","","","","","",""
"null","audio/table1.wav","null","audio-keyboard-response","312","2.1.0","322050","F=YES, J=NO","ywqr1m39bx","0","78","75","80","","","","","","","","","","","","","","","",""
"485","
          <p id=""word"" style=""font-size: 40px;"">stimb</p>
          <p style=""font-size: 16px;"">F = YES &nbsp;&nbsp;&nbsp; J = NO</p>
        ","j","html-keyboard-response","313","2.1.0","322536","F=YES, J=NO","ywqr1m39bx","0","78","75","80","","","","","","","","","stimb","table1","pseudoword","pseudoword","j","true","",""
"null","<p style=""font-size: 50px;"">+</p>","null","html-keyboard-response","314","2.1.0","322840","F=YES, J=NO","ywqr1m39bx","0","78","75","80","","","","","","","","","","","","","","","",""
"null","audio/beep-329314.mp3","null","audio-keyboard-response","315","2.1.0","324382","F=YES, J=NO","ywqr1m39bx","0","78","75","80","","","","","","","","","","","","","","","",""
"null","audio/relief.wav","null","audio-keyboard-response","316","2.1.0","325051","F=YES, J=NO","ywqr1m39bx","0","78","75","80","","","","","","","","","","","","","","","",""
"445","
          <p id=""word"" style=""font-size: 40px;"">bring</p>
          <p style=""font-size: 16px;"">F = YES &nbsp;&nbsp;&nbsp; J = NO</p>
        ","f","html-keyboard-response","317","2.1.0","325496","F=YES, J=NO","ywqr1m39bx","0","78","75","80","","","","","","","","","bring","relief","metaphor","experimental","f","true","",""
"null","<p style=""font-size: 50px;"">+</p>","null","html-keyboard-response","318","2.1.0","325812","F=YES, J=NO","ywqr1m39bx","0","78","75","80","","","","","","","","","","","","","","","",""
"null","audio/beep-329314.mp3","null","audio-keyboard-response","319","2.1.0","327340","F=YES, J=NO","ywqr1m39bx","0","78","75","80","","","","","","","","","","","","","","","",""
"null","audio/cloud1.wav","null","audio-keyboard-response","320","2.1.0","327891","F=YES, J=NO","ywqr1m39bx","0","78","75","80","","","","","","","","","","","","","","","",""
"547","
          <p id=""word"" style=""font-size: 40px;"">brotant</p>
          <p style=""font-size: 16px;"">F = YES &nbsp;&nbsp;&nbsp; J = NO</p>
        ","j","html-keyboard-response","321","2.1.0","328438","F=YES, J=NO","ywqr1m39bx","0","78","75","80","","","","","","","","","brotant","cloud1","pseudoword","pseudoword","j","true","",""
"null","<p style=""font-size: 50px;"">+</p>","null","html-keyboard-response","322","2.1.0","328742","F=YES, J=NO","ywqr1m39bx","0","78","75","80","","","","","","","","","","","","","","","",""
"null","audio/beep-329314.mp3","null","audio-keyboard-response","323","2.1.0","330281","F=YES, J=NO","ywqr1m39bx","0","78","75","80","","","","","","","","","","","","","","","",""
"null","audio/window1.wav","null","audio-keyboard-response","324","2.1.0","330891","F=YES, J=NO","ywqr1m39bx","0","78","75","80","","","","","","","","","","","","","","","",""
"507","
          <p id=""word"" style=""font-size: 40px;"">toss</p>
          <p style=""font-size: 16px;"">F = YES &nbsp;&nbsp;&nbsp; J = NO</p>
        ","f","html-keyboard-response","325","2.1.0","331399","F=YES, J=NO","ywqr1m39bx","0","78","75","80","","","","","","","","","toss","window1","filler","filler","f","true","",""
"null","<p style=""font-size: 50px;"">+</p>","null","html-keyboard-response","326","2.1.0","331708","F=YES, J=NO","ywqr1m39bx","0","78","75","80","","","","","","","","","","","","","","","",""
"null","audio/beep-329314.mp3","null","audio-keyboard-response","327","2.1.0","333240","F=YES, J=NO","ywqr1m39bx","0","78","75","80","","","","","","","","","","","","","","","",""
"null","audio/rain.wav","null","audio-keyboard-response","328","2.1.0","333691","F=YES, J=NO","ywqr1m39bx","0","78","75","80","","","","","","","","","","","","","","","",""
"466","
          <p id=""word"" style=""font-size: 40px;"">lose</p>
          <p style=""font-size: 16px;"">F = YES &nbsp;&nbsp;&nbsp; J = NO</p>
        ","f","html-keyboard-response","329","2.1.0","334157","F=YES, J=NO","ywqr1m39bx","0","78","75","80","","","","","","","","","lose","rain","unrelated","experimental","f","true","",""
"null","<p style=""font-size: 50px;"">+</p>","null","html-keyboard-response","330","2.1.0","334461","F=YES, J=NO","ywqr1m39bx","0","78","75","80","","","","","","","","","","","","","","","",""
"null","audio/beep-329314.mp3","null","audio-keyboard-response","331","2.1.0","336001","F=YES, J=NO","ywqr1m39bx","0","78","75","80","","","","","","","","","","","","","","","",""
"null","audio/empire.wav","null","audio-keyboard-response","332","2.1.0","336630","F=YES, J=NO","ywqr1m39bx","0","78","75","80","","","","","","","","","","","","","","","",""
"482","
          <p id=""word"" style=""font-size: 40px;"">slorby</p>
          <p style=""font-size: 16px;"">F = YES &nbsp;&nbsp;&nbsp; J = NO</p>
        ","j","html-keyboard-response","333","2.1.0","337114","F=YES, J=NO","ywqr1m39bx","0","78","75","80","","","","","","","","","slorby","empire","pseudoword","pseudoword","j","true","",""
"null","<p style=""font-size: 50px;"">+</p>","null","html-keyboard-response","334","2.1.0","337420","F=YES, J=NO","ywqr1m39bx","0","78","75","80","","","","","","","","","","","","","","","",""
"null","audio/beep-329314.mp3","null","audio-keyboard-response","335","2.1.0","338961","F=YES, J=NO","ywqr1m39bx","0","78","75","80","","","","","","","","","","","","","","","",""
"null","audio/desire.wav","null","audio-keyboard-response","336","2.1.0","339571","F=YES, J=NO","ywqr1m39bx","0","78","75","80","","","","","","","","","","","","","","","",""
"495","
          <p id=""word"" style=""font-size: 40px;"">nophed</p>
          <p style=""font-size: 16px;"">F = YES &nbsp;&nbsp;&nbsp; J = NO</p>
        ","j","html-keyboard-response","337","2.1.0","340066","F=YES, J=NO","ywqr1m39bx","0","78","75","80","","","","","","","","","nophed","desire","pseudoword","pseudoword","j","true","",""
"null","<p style=""font-size: 50px;"">+</p>","null","html-keyboard-response","338","2.1.0","340374","F=YES, J=NO","ywqr1m39bx","0","78","75","80","","","","","","","","","","","","","","","",""
"null","audio/beep-329314.mp3","null","audio-keyboard-response","339","2.1.0","341901","F=YES, J=NO","ywqr1m39bx","0","78","75","80","","","","","","","","","","","","","","","",""
"null","audio/corpse1.wav","null","audio-keyboard-response","340","2.1.0","342530","F=YES, J=NO","ywqr1m39bx","0","78","75","80","","","","","","","","","","","","","","","",""
"515","
          <p id=""word"" style=""font-size: 40px;"">glonet</p>
          <p style=""font-size: 16px;"">F = YES &nbsp;&nbsp;&nbsp; J = NO</p>
        ","j","html-keyboard-response","341","2.1.0","343047","F=YES, J=NO","ywqr1m39bx","0","78","75","80","","","","","","","","","glonet","corpse1","pseudoword","pseudoword","j","true","",""
"null","<p style=""font-size: 50px;"">+</p>","null","html-keyboard-response","342","2.1.0","343355","F=YES, J=NO","ywqr1m39bx","0","78","75","80","","","","","","","","","","","","","","","",""
"null","audio/beep-329314.mp3","null","audio-keyboard-response","343","2.1.0","344880","F=YES, J=NO","ywqr1m39bx","0","78","75","80","","","","","","","","","","","","","","","",""
"null","audio/burden.wav","null","audio-keyboard-response","344","2.1.0","345390","F=YES, J=NO","ywqr1m39bx","0","78","75","80","","","","","","","","","","","","","","","",""
"462","
          <p id=""word"" style=""font-size: 40px;"">whotth</p>
          <p style=""font-size: 16px;"">F = YES &nbsp;&nbsp;&nbsp; J = NO</p>
        ","j","html-keyboard-response","345","2.1.0","345853","F=YES, J=NO","ywqr1m39bx","0","78","75","80","","","","","","","","","whotth","burden","pseudoword","pseudoword","j","true","",""
"null","<p style=""font-size: 50px;"">+</p>","null","html-keyboard-response","346","2.1.0","346162","F=YES, J=NO","ywqr1m39bx","0","78","75","80","","","","","","","","","","","","","","","",""
"null","audio/beep-329314.mp3","null","audio-keyboard-response","347","2.1.0","347701","F=YES, J=NO","ywqr1m39bx","0","78","75","80","","","","","","","","","","","","","","","",""
"null","audio/terrain.wav","null","audio-keyboard-response","348","2.1.0","348290","F=YES, J=NO","ywqr1m39bx","0","78","75","80","","","","","","","","","","","","","","","",""
"437","
          <p id=""word"" style=""font-size: 40px;"">twist</p>
          <p style=""font-size: 16px;"">F = YES &nbsp;&nbsp;&nbsp; J = NO</p>
        ","f","html-keyboard-response","349","2.1.0","348728","F=YES, J=NO","ywqr1m39bx","0","78","75","80","","","","","","","","","twist","terrain","filler","filler","f","true","",""
"null","<p style=""font-size: 50px;"">+</p>","null","html-keyboard-response","350","2.1.0","349035","F=YES, J=NO","ywqr1m39bx","0","78","75","80","","","","","","","","","","","","","","","",""
"null","audio/beep-329314.mp3","null","audio-keyboard-response","351","2.1.0","350560","F=YES, J=NO","ywqr1m39bx","0","78","75","80","","","","","","","","","","","","","","","",""
"null","audio/plot1.wav","null","audio-keyboard-response","352","2.1.0","351091","F=YES, J=NO","ywqr1m39bx","0","78","75","80","","","","","","","","","","","","","","","",""
"529","
          <p id=""word"" style=""font-size: 40px;"">weave</p>
          <p style=""font-size: 16px;"">F = YES &nbsp;&nbsp;&nbsp; J = NO</p>
        ","j","html-keyboard-response","353","2.1.0","351621","F=YES, J=NO","ywqr1m39bx","0","78","75","80","","","","","","","","","weave","plot1","metaphor","experimental","f","false","",""
"null","<p style=""font-size: 50px;"">+</p>","null","html-keyboard-response","354","2.1.0","351937","F=YES, J=NO","ywqr1m39bx","0","78","75","80","","","","","","","","","","","","","","","",""
"null","audio/beep-329314.mp3","null","audio-keyboard-response","355","2.1.0","353461","F=YES, J=NO","ywqr1m39bx","0","78","75","80","","","","","","","","","","","","","","","",""
"null","audio/soul.wav","null","audio-keyboard-response","356","2.1.0","354050","F=YES, J=NO","ywqr1m39bx","0","78","75","80","","","","","","","","","","","","","","","",""
"490","
          <p id=""word"" style=""font-size: 40px;"">sell</p>
          <p style=""font-size: 16px;"">F = YES &nbsp;&nbsp;&nbsp; J = NO</p>
        ","f","html-keyboard-response","357","2.1.0","354541","F=YES, J=NO","ywqr1m39bx","0","78","75","80","","","","","","","","","sell","soul","metaphor","experimental","f","true","",""
"null","<p style=""font-size: 50px;"">+</p>","null","html-keyboard-response","358","2.1.0","354847","F=YES, J=NO","ywqr1m39bx","0","78","75","80","","","","","","","","","","","","","","","",""
"null","audio/beep-329314.mp3","null","audio-keyboard-response","359","2.1.0","356380","F=YES, J=NO","ywqr1m39bx","0","78","75","80","","","","","","","","","","","","","","","",""
"null","audio/seat.wav","null","audio-keyboard-response","360","2.1.0","357010","F=YES, J=NO","ywqr1m39bx","0","78","75","80","","","","","","","","","","","","","","","",""
"639","
          <p id=""word"" style=""font-size: 40px;"">digest</p>
          <p style=""font-size: 16px;"">F = YES &nbsp;&nbsp;&nbsp; J = NO</p>
        ","f","html-keyboard-response","361","2.1.0","357650","F=YES, J=NO","ywqr1m39bx","0","78","75","80","","","","","","","","","digest","seat","unrelated","experimental","f","true","",""
"1336","<p>Excellent! You have finished block 3 of 8.</p>
                     <p>Feel free to take a 30 second break.</p>
                     <p>Press any key when you're ready to continue.</p>","s","html-keyboard-response","362","2.1.0","358986","F=YES, J=NO","ywqr1m39bx","0","78","75","80","","","","","","","","","","","","","","","",""
"552","<p>Starting main block 4 of 8. Press any key to continue.</p>","s","html-keyboard-response","363","2.1.0","359539","F=YES, J=NO","ywqr1m39bx","0","78","75","80","","","","","","","","","","","","","","","",""
"null","<p style=""font-size: 50px;"">+</p>","null","html-keyboard-response","364","2.1.0","359848","F=YES, J=NO","ywqr1m39bx","0","78","75","80","","","","","","","","","","","","","","","",""
"null","audio/beep-329314.mp3","null","audio-keyboard-response","365","2.1.0","361381","F=YES, J=NO","ywqr1m39bx","0","78","75","80","","","","","","","","","","","","","","","",""
"null","audio/tunnel.wav","null","audio-keyboard-response","366","2.1.0","361810","F=YES, J=NO","ywqr1m39bx","0","78","75","80","","","","","","","","","","","","","","","",""
"555","
          <p id=""word"" style=""font-size: 40px;"">gred</p>
          <p style=""font-size: 16px;"">F = YES &nbsp;&nbsp;&nbsp; J = NO</p>
        ","j","html-keyboard-response","367","2.1.0","362366","F=YES, J=NO","ywqr1m39bx","0","78","75","80","","","","","","","","","gred","tunnel","pseudoword","pseudoword","j","true","",""
"null","<p style=""font-size: 50px;"">+</p>","null","html-keyboard-response","368","2.1.0","362671","F=YES, J=NO","ywqr1m39bx","0","78","75","80","","","","","","","","","","","","","","","",""
"null","audio/beep-329314.mp3","null","audio-keyboard-response","369","2.1.0","364200","F=YES, J=NO","ywqr1m39bx","0","78","75","80","","","","","","","","","","","","","","","",""
"null","audio/fox.wav","null","audio-keyboard-response","370","2.1.0","364991","F=YES, J=NO","ywqr1m39bx","0","78","75","80","","","","","","","","","","","","","","","",""
"489","
          <p id=""word"" style=""font-size: 40px;"">conquer</p>
          <p style=""font-size: 16px;"">F = YES &nbsp;&nbsp;&nbsp; J = NO</p>
        ","j","html-keyboard-response","371","2.1.0","365481","F=YES, J=NO","ywqr1m39bx","0","78","75","80","","","","","","","","","conquer","fox","unrelated","experimental","f","false","",""
"null","<p style=""font-size: 50px;"">+</p>","null","html-keyboard-response","372","2.1.0","365785","F=YES, J=NO","ywqr1m39bx","0","78","75","80","","","","","","","","","","","","","","","",""
"null","audio/beep-329314.mp3","null","audio-keyboard-response","373","2.1.0","367321","F=YES, J=NO","ywqr1m39bx","0","78","75","80","","","","","","","","","","","","","","","",""
"null","audio/truth1.wav","null","audio-keyboard-response","374","2.1.0","367871","F=YES, J=NO","ywqr1m39bx","0","78","75","80","","","","","","","","","","","","","","","",""
"566","
          <p id=""word"" style=""font-size: 40px;"">calitom</p>
          <p style=""font-size: 16px;"">F = YES &nbsp;&nbsp;&nbsp; J = NO</p>
        ","j","html-keyboard-response","375","2.1.0","368438","F=YES, J=NO","ywqr1m39bx","0","78","75","80","","","","","","","","","calitom","truth1","pseudoword","pseudoword","j","true","",""
"null","<p style=""font-size: 50px;"">+</p>","null","html-keyboard-response","376","2.1.0","368746","F=YES, J=NO","ywqr1m39bx","0","78","75","80","","","","","","","","","","","","","","","",""
"null","audio/beep-329314.mp3","null","audio-keyboard-response","377","2.1.0","370281","F=YES, J=NO","ywqr1m39bx","0","78","75","80","","","","","","","","","","","","","","","",""
"null","audio/uncle1.wav","null","audio-keyboard-response","378","2.1.0","370771","F=YES, J=NO","ywqr1m39bx","0","78","75","80","","","","","","","","","","","","","","","",""
"410","
          <p id=""word"" style=""font-size: 40px;"">break</p>
          <p style=""font-size: 16px;"">F = YES &nbsp;&nbsp;&nbsp; J = NO</p>
        ","f","html-keyboard-response","379","2.1.0","371182","F=YES, J=NO","ywqr1m39bx","0","78","75","80","","","","","","","","","break","uncle1","unrelated","experimental","f","true","",""
"null","<p style=""font-size: 50px;"">+</p>","null","html-keyboard-response","380","2.1.0","371486","F=YES, J=NO","ywqr1m39bx","0","78","75","80","","","","","","","","","","","","","","","",""
"null","audio/beep-329314.mp3","null","audio-keyboard-response","381","2.1.0","373020","F=YES, J=NO","ywqr1m39bx","0","78","75","80","","","","","","","","","","","","","","","",""
"null","audio/bottle.wav","null","audio-keyboard-response","382","2.1.0","373470","F=YES, J=NO","ywqr1m39bx","0","78","75","80","","","","","","","","","","","","","","","",""
"463","
          <p id=""word"" style=""font-size: 40px;"">open</p>
          <p style=""font-size: 16px;"">F = YES &nbsp;&nbsp;&nbsp; J = NO</p>
        ","f","html-keyboard-response","383","2.1.0","373934","F=YES, J=NO","ywqr1m39bx","0","78","75","80","","","","","","","","","open","bottle","literal","experimental","f","true","",""
"null","<p style=""font-size: 50px;"">+</p>","null","html-keyboard-response","384","2.1.0","374238","F=YES, J=NO","ywqr1m39bx","0","78","75","80","","","","","","","","","","","","","","","",""
"null","audio/beep-329314.mp3","null","audio-keyboard-response","385","2.1.0","375761","F=YES, J=NO","ywqr1m39bx","0","78","75","80","","","","","","","","","","","","","","","",""
"null","audio/cave1.wav","null","audio-keyboard-response","386","2.1.0","376310","F=YES, J=NO","ywqr1m39bx","0","78","75","80","","","","","","","","","","","","","","","",""
"529","
          <p id=""word"" style=""font-size: 40px;"">blacket</p>
          <p style=""font-size: 16px;"">F = YES &nbsp;&nbsp;&nbsp; J = NO</p>
        ","f","html-keyboard-response","387","2.1.0","376841","F=YES, J=NO","ywqr1m39bx","0","78","75","80","","","","","","","","","blacket","cave1","pseudoword","pseudoword","j","false","",""
"null","<p style=""font-size: 50px;"">+</p>","null","html-keyboard-response","388","2.1.0","377149","F=YES, J=NO","ywqr1m39bx","0","78","75","80","","","","","","","","","","","","","","","",""
"null","audio/beep-329314.mp3","null","audio-keyboard-response","389","2.1.0","378680","F=YES, J=NO","ywqr1m39bx","0","78","75","80","","","","","","","","","","","","","","","",""
"null","audio/pain1.wav","null","audio-keyboard-response","390","2.1.0","379130","F=YES, J=NO","ywqr1m39bx","0","78","75","80","","","","","","","","","","","","","","","",""
"569","
          <p id=""word"" style=""font-size: 40px;"">tritted</p>
          <p style=""font-size: 16px;"">F = YES &nbsp;&nbsp;&nbsp; J = NO</p>
        ","j","html-keyboard-response","391","2.1.0","379700","F=YES, J=NO","ywqr1m39bx","0","78","75","80","","","","","","","","","tritted","pain1","pseudoword","pseudoword","j","true","",""
