"rt","stimulus","response","trial_type","trial_index","plugin_version","time_elapsed","response_mapping","subject_id","list_index","lextale_score","lextale_word_score","lextale_nonword_score","success","timeout","failed_images","failed_audio","failed_video","task","isWord","isDummy","target","prime","prime_type","stimulus_type","correct_response","correct","section","question_order"
"45749","
    <div style=""max-width: 800px; margin: auto; text-align: left;"">
      <h2>STANFORD UNIVERSITY</h2>
      <h3>Research Information Sheet</h3>
      <p><strong>Protocol Director:</strong> Robert Hawkins<br>
      <strong>Protocol Title:</strong> Communication and social cognition in natural audiovisual contexts<br>
      <strong>IRB#:</strong> 77226</p>

      <p><strong>DESCRIPTION:</strong> You are invited to participate in a research study about language and communication. The purpose of the research is to understand how you interact and communicate with other people in naturalistic settings as a fluent English speaker. This research will be conducted through the Prolific platform, including participants from the US, UK, and Canada. If you decide to participate in this research, you will play a communication game in a group with one or more partners.</p>

      <p><strong>TIME INVOLVEMENT:</strong> The task will last the amount of time advertised on Prolific. You are free to withdraw from the study at any time.</p>

      <p><strong>RISKS AND BENEFITS:</strong> You may become frustrated if your partner gets distracted, or experience discomfort if other participants in your group send text that is inappropriate for the task. We ask you to please be respectful of other participants you might be interacting with to mitigate these risks. You may also experience discomfort when being asked to discuss or challenge emotionally salient political beliefs. Study data will be stored securely, in compliance with Stanford University standards, minimizing the risk of confidentiality breach. This study advances our scientific understanding of how people communicate and collaborate in naturalistic settings. This study may lead to further insights about what can go wrong in teamwork, suggest potential interventions to overcome these barriers, and help to develop assistive technologies that collaborate with human partners. We cannot and do not guarantee or promise that you will receive any benefits from this study.</p>

      <p><strong>PAYMENTS:</strong> You will receive payment in the amount advertised on Prolific. If you do not complete this study, you will receive prorated payment based on the time that you have spent. Additionally, you may be eligible for bonus payments as described in the instructions.</p>

      <p><strong>PARTICIPANT’S RIGHTS:</strong> If you have read this form and have decided to participate in this project, please understand your participation is voluntary and you have the right to withdraw your consent or discontinue participation at any time without penalty or loss of benefits to which you are otherwise entitled. The alternative is not to participate. You have the right to refuse to answer particular questions. The results of this research study may be presented at scientific or professional meetings or published in scientific journals. Your individual privacy will be maintained in all published and written data resulting from the study. In accordance with scientific norms, the data from this study may be used or shared with other researchers for future research (after removing personally identifying information) without additional consent from you.</p>

      <p><strong>CONTACT INFORMATION:</strong><br>
      Questions: If you have any questions, concerns or complaints about this research, its procedures, risks and benefits, contact the Protocol Director, Robert Hawkins (<a href=""mailto:rdhawkins@stanford.edu"">rdhawkins@stanford.edu</a>, 217-549-6923).<br>
      Independent Contact: If you are not satisfied with how this study is being conducted, or if you have any concerns, complaints, or general questions about the research or your rights as a participant, please contact the Stanford Institutional Review Board (IRB) to speak to someone independent of the research team at 650-723-2480 or toll free at 1-866-680-2906, or email at <a href=""mailto:irbnon-med@stanford.edu"">irbnon-med@stanford.edu</a>. You can also write to the Stanford IRB, Stanford University, 1705 El Camino Real, Palo Alto, CA 94306.</p>

      <p><strong>Please save or print a copy of this page for your records.</strong></p>
      <p>If you agree to participate in this research, click ""Continue"" below.</p>
    </div>
  ","0","html-button-response","0","2.1.0","45821","J=YES, F=NO","z1s433znd7","0","85","80","90","","","","","","","","","","","","","","","",""
"576602","
    <div style=""max-width: 800px; margin: auto; text-align: left;"">
      <h2>Welcome!</h2>
      <p>Thank you for participating in this study. The experiment consists of three parts:</p>
      <ol>
        <li>An English vocabulary test</li>
        <li>A main task in which you will hear and see words, and decide whether the written word is a real English word</li>
        <li>A brief survey about your background</li>
      </ol>
      <p>Each part will be introduced before it begins.</p>
      <p>Please make sure you are in a quiet environment and can hear audio clearly for the final task.</p>
      <p style=""margin-top: 2em;"">Press any key to begin.</p>
    </div>
  "," ","html-keyboard-response","1","2.1.0","-19934","J=YES, F=NO","z1s433znd7","0","85","80","90","","","","","","","","","","","","","","","",""
"","","","preload","2","2.1.0","-15369","J=YES, F=NO","z1s433znd7","0","85","80","90","true","false","[]","[]","[]","","","","","","","","","","",""
"23278","
    <div style=""max-width: 800px; margin: auto; text-align: left;"">
      <h2>Part 1: Vocabulary Test</h2>
      <p>You will now complete the first part of the study: a short English vocabulary test.</p>
      <p>This test is called <strong>LexTALE</strong> and helps us get a general sense of your English proficiency.</p>
      <p style=""margin-top: 2em;"">Press any key to continue.</p>
    </div>
  "," ","html-keyboard-response","3","2.1.0","7915","J=YES, F=NO","z1s433znd7","0","85","80","90","","","","","","","","","","","","","","","",""
"18761","
    <div style=""max-width: 800px; margin: auto; text-align: left;"">
      <h2>LexTALE Vocabulary Test</h2>
      <p>In this test, you will see a series of letter strings—one at a time.</p>
      <p>Your task is to decide whether each string is a real English word.</p>
      <p><strong>Key responses:</strong></p>
      <ul>
        <li><strong>J</strong> = YES (real English word)</li>
        <li><strong>F</strong> = NO (not a real English word)</li>
      </ul>
      <p>There is no time limit, but please try to be accurate.</p>
      <p style=""margin-top: 2em;"">Press any key to begin.</p>
    </div>
  "," ","html-keyboard-response","4","2.1.0","26686","J=YES, F=NO","z1s433znd7","0","85","80","90","","","","","","","","","","","","","","","",""
"17478","
  <p style=""font-size: 40px;"">platery</p>
  <p style=""font-size: 16px;"">J = YES &nbsp;&nbsp;&nbsp; F = NO</p>
","f","html-keyboard-response","5","2.1.0","44176","J=YES, F=NO","z1s433znd7","0","85","80","90","","","","","","lextale","false","true","","","","","","","",""
"1861","
  <p style=""font-size: 40px;"">denial</p>
  <p style=""font-size: 16px;"">J = YES &nbsp;&nbsp;&nbsp; F = NO</p>
","j","html-keyboard-response","6","2.1.0","46049","J=YES, F=NO","z1s433znd7","0","85","80","90","","","","","","lextale","true","true","","","","","","","",""
"3980","
  <p style=""font-size: 40px;"">marrit</p>
  <p style=""font-size: 16px;"">J = YES &nbsp;&nbsp;&nbsp; F = NO</p>
","f","html-keyboard-response","7","2.1.0","50039","J=YES, F=NO","z1s433znd7","0","85","80","90","","","","","","lextale","false","true","","","","","","","",""
"1449","
  <p style=""font-size: 40px;"">bottle</p>
  <p style=""font-size: 16px;"">J = YES &nbsp;&nbsp;&nbsp; F = NO</p>
","j","html-keyboard-response","8","2.1.0","51497","J=YES, F=NO","z1s433znd7","0","85","80","90","","","","","","lextale","true","false","","","","","","","",""
"1691","
  <p style=""font-size: 40px;"">birst</p>
  <p style=""font-size: 16px;"">J = YES &nbsp;&nbsp;&nbsp; F = NO</p>
","f","html-keyboard-response","9","2.1.0","53197","J=YES, F=NO","z1s433znd7","0","85","80","90","","","","","","lextale","false","false","","","","","","","",""
"1277","
  <p style=""font-size: 40px;"">envy</p>
  <p style=""font-size: 16px;"">J = YES &nbsp;&nbsp;&nbsp; F = NO</p>
","j","html-keyboard-response","10","2.1.0","54484","J=YES, F=NO","z1s433znd7","0","85","80","90","","","","","","lextale","true","false","","","","","","","",""
"1881","
  <p style=""font-size: 40px;"">brang</p>
  <p style=""font-size: 16px;"">J = YES &nbsp;&nbsp;&nbsp; F = NO</p>
","f","html-keyboard-response","11","2.1.0","56375","J=YES, F=NO","z1s433znd7","0","85","80","90","","","","","","lextale","false","false","","","","","","","",""
"1224","
  <p style=""font-size: 40px;"">huge</p>
  <p style=""font-size: 16px;"">J = YES &nbsp;&nbsp;&nbsp; F = NO</p>
","j","html-keyboard-response","12","2.1.0","57609","J=YES, F=NO","z1s433znd7","0","85","80","90","","","","","","lextale","true","false","","","","","","","",""
"1332","
  <p style=""font-size: 40px;"">plove</p>
  <p style=""font-size: 16px;"">J = YES &nbsp;&nbsp;&nbsp; F = NO</p>
","f","html-keyboard-response","13","2.1.0","58950","J=YES, F=NO","z1s433znd7","0","85","80","90","","","","","","lextale","false","false","","","","","","","",""
"1258","
  <p style=""font-size: 40px;"">border</p>
  <p style=""font-size: 16px;"">J = YES &nbsp;&nbsp;&nbsp; F = NO</p>
","j","html-keyboard-response","14","2.1.0","60216","J=YES, F=NO","z1s433znd7","0","85","80","90","","","","","","lextale","true","false","","","","","","","",""
"2761","
  <p style=""font-size: 40px;"">flimsy</p>
  <p style=""font-size: 16px;"">J = YES &nbsp;&nbsp;&nbsp; F = NO</p>
","j","html-keyboard-response","15","2.1.0","62987","J=YES, F=NO","z1s433znd7","0","85","80","90","","","","","","lextale","true","false","","","","","","","",""
"1023","
  <p style=""font-size: 40px;"">drain</p>
  <p style=""font-size: 16px;"">J = YES &nbsp;&nbsp;&nbsp; F = NO</p>
","j","html-keyboard-response","16","2.1.0","64019","J=YES, F=NO","z1s433znd7","0","85","80","90","","","","","","lextale","true","false","","","","","","","",""
"1798","
  <p style=""font-size: 40px;"">twindle</p>
  <p style=""font-size: 16px;"">J = YES &nbsp;&nbsp;&nbsp; F = NO</p>
","f","html-keyboard-response","17","2.1.0","65824","J=YES, F=NO","z1s433znd7","0","85","80","90","","","","","","lextale","false","false","","","","","","","",""
"2134","
  <p style=""font-size: 40px;"">propose</p>
  <p style=""font-size: 16px;"">J = YES &nbsp;&nbsp;&nbsp; F = NO</p>
","j","html-keyboard-response","18","2.1.0","67965","J=YES, F=NO","z1s433znd7","0","85","80","90","","","","","","lextale","true","false","","","","","","","",""
"1277","
  <p style=""font-size: 40px;"">forlay</p>
  <p style=""font-size: 16px;"">J = YES &nbsp;&nbsp;&nbsp; F = NO</p>
","f","html-keyboard-response","19","2.1.0","69252","J=YES, F=NO","z1s433znd7","0","85","80","90","","","","","","lextale","false","false","","","","","","","",""
"1187","
  <p style=""font-size: 40px;"">tenant</p>
  <p style=""font-size: 16px;"">J = YES &nbsp;&nbsp;&nbsp; F = NO</p>
","j","html-keyboard-response","20","2.1.0","70447","J=YES, F=NO","z1s433znd7","0","85","80","90","","","","","","lextale","true","false","","","","","","","",""
"986","
  <p style=""font-size: 40px;"">strain</p>
  <p style=""font-size: 16px;"">J = YES &nbsp;&nbsp;&nbsp; F = NO</p>
","j","html-keyboard-response","21","2.1.0","71440","J=YES, F=NO","z1s433znd7","0","85","80","90","","","","","","lextale","true","false","","","","","","","",""
"1921","
  <p style=""font-size: 40px;"">holster</p>
  <p style=""font-size: 16px;"">J = YES &nbsp;&nbsp;&nbsp; F = NO</p>
","j","html-keyboard-response","22","2.1.0","73369","J=YES, F=NO","z1s433znd7","0","85","80","90","","","","","","lextale","true","false","","","","","","","",""
"1378","
  <p style=""font-size: 40px;"">hinder</p>
  <p style=""font-size: 16px;"">J = YES &nbsp;&nbsp;&nbsp; F = NO</p>
","j","html-keyboard-response","23","2.1.0","74754","J=YES, F=NO","z1s433znd7","0","85","80","90","","","","","","lextale","true","false","","","","","","","",""
"1057","
  <p style=""font-size: 40px;"">swindle</p>
  <p style=""font-size: 16px;"">J = YES &nbsp;&nbsp;&nbsp; F = NO</p>
","j","html-keyboard-response","24","2.1.0","75819","J=YES, F=NO","z1s433znd7","0","85","80","90","","","","","","lextale","true","false","","","","","","","",""
"1681","
  <p style=""font-size: 40px;"">nuder</p>
  <p style=""font-size: 16px;"">J = YES &nbsp;&nbsp;&nbsp; F = NO</p>
","f","html-keyboard-response","25","2.1.0","77507","J=YES, F=NO","z1s433znd7","0","85","80","90","","","","","","lextale","false","false","","","","","","","",""
"1024","
  <p style=""font-size: 40px;"">pillow</p>
  <p style=""font-size: 16px;"">J = YES &nbsp;&nbsp;&nbsp; F = NO</p>
","j","html-keyboard-response","26","2.1.0","78538","J=YES, F=NO","z1s433znd7","0","85","80","90","","","","","","lextale","true","false","","","","","","","",""
"2325","
  <p style=""font-size: 40px;"">shumble</p>
  <p style=""font-size: 16px;"">J = YES &nbsp;&nbsp;&nbsp; F = NO</p>
","f","html-keyboard-response","27","2.1.0","80871","J=YES, F=NO","z1s433znd7","0","85","80","90","","","","","","lextale","false","false","","","","","","","",""
"1241","
  <p style=""font-size: 40px;"">thirst</p>
  <p style=""font-size: 16px;"">J = YES &nbsp;&nbsp;&nbsp; F = NO</p>
","j","html-keyboard-response","28","2.1.0","82119","J=YES, F=NO","z1s433znd7","0","85","80","90","","","","","","lextale","true","false","","","","","","","",""
"1658","
  <p style=""font-size: 40px;"">unsail</p>
  <p style=""font-size: 16px;"">J = YES &nbsp;&nbsp;&nbsp; F = NO</p>
","f","html-keyboard-response","29","2.1.0","83785","J=YES, F=NO","z1s433znd7","0","85","80","90","","","","","","lextale","false","false","","","","","","","",""
"11488","
  <p style=""font-size: 40px;"">rifle</p>
  <p style=""font-size: 16px;"">J = YES &nbsp;&nbsp;&nbsp; F = NO</p>
","j","html-keyboard-response","30","2.1.0","95282","J=YES, F=NO","z1s433znd7","0","85","80","90","","","","","","lextale","true","false","","","","","","","",""
"1207","
  <p style=""font-size: 40px;"">mush</p>
  <p style=""font-size: 16px;"">J = YES &nbsp;&nbsp;&nbsp; F = NO</p>
","j","html-keyboard-response","31","2.1.0","96497","J=YES, F=NO","z1s433znd7","0","85","80","90","","","","","","lextale","false","false","","","","","","","",""
"5459","
  <p style=""font-size: 40px;"">drench</p>
  <p style=""font-size: 16px;"">J = YES &nbsp;&nbsp;&nbsp; F = NO</p>
","j","html-keyboard-response","32","2.1.0","101964","J=YES, F=NO","z1s433znd7","0","85","80","90","","","","","","lextale","true","false","","","","","","","",""
"1634","
  <p style=""font-size: 40px;"">snirt</p>
  <p style=""font-size: 16px;"">J = YES &nbsp;&nbsp;&nbsp; F = NO</p>
","f","html-keyboard-response","33","2.1.0","103607","J=YES, F=NO","z1s433znd7","0","85","80","90","","","","","","lextale","false","false","","","","","","","",""
"1059","
  <p style=""font-size: 40px;"">bitter</p>
  <p style=""font-size: 16px;"">J = YES &nbsp;&nbsp;&nbsp; F = NO</p>
","j","html-keyboard-response","34","2.1.0","104674","J=YES, F=NO","z1s433znd7","0","85","80","90","","","","","","lextale","true","false","","","","","","","",""
"1214","
  <p style=""font-size: 40px;"">pliff</p>
  <p style=""font-size: 16px;"">J = YES &nbsp;&nbsp;&nbsp; F = NO</p>
","f","html-keyboard-response","35","2.1.0","105895","J=YES, F=NO","z1s433znd7","0","85","80","90","","","","","","lextale","false","false","","","","","","","",""
"1104","
  <p style=""font-size: 40px;"">tablet</p>
  <p style=""font-size: 16px;"">J = YES &nbsp;&nbsp;&nbsp; F = NO</p>
","j","html-keyboard-response","36","2.1.0","107006","J=YES, F=NO","z1s433znd7","0","85","80","90","","","","","","lextale","true","false","","","","","","","",""
"1361","
  <p style=""font-size: 40px;"">glimmer</p>
  <p style=""font-size: 16px;"">J = YES &nbsp;&nbsp;&nbsp; F = NO</p>
","j","html-keyboard-response","37","2.1.0","108375","J=YES, F=NO","z1s433znd7","0","85","80","90","","","","","","lextale","true","false","","","","","","","",""
"20054","
  <p style=""font-size: 40px;"">slink</p>
  <p style=""font-size: 16px;"">J = YES &nbsp;&nbsp;&nbsp; F = NO</p>
","f","html-keyboard-response","38","2.1.0","128436","J=YES, F=NO","z1s433znd7","0","85","80","90","","","","","","lextale","true","false","","","","","","","",""
"1269","
  <p style=""font-size: 40px;"">clever</p>
  <p style=""font-size: 16px;"">J = YES &nbsp;&nbsp;&nbsp; F = NO</p>
","j","html-keyboard-response","39","2.1.0","129713","J=YES, F=NO","z1s433znd7","0","85","80","90","","","","","","lextale","true","false","","","","","","","",""
"37715","
  <p style=""font-size: 40px;"">grum</p>
  <p style=""font-size: 16px;"">J = YES &nbsp;&nbsp;&nbsp; F = NO</p>
","f","html-keyboard-response","40","2.1.0","167437","J=YES, F=NO","z1s433znd7","0","85","80","90","","","","","","lextale","false","false","","","","","","","",""
"1489","
  <p style=""font-size: 40px;"">string</p>
  <p style=""font-size: 16px;"">J = YES &nbsp;&nbsp;&nbsp; F = NO</p>
","j","html-keyboard-response","41","2.1.0","168934","J=YES, F=NO","z1s433znd7","0","85","80","90","","","","","","lextale","true","false","","","","","","","",""
"21453","
  <p style=""font-size: 40px;"">plim</p>
  <p style=""font-size: 16px;"">J = YES &nbsp;&nbsp;&nbsp; F = NO</p>
","f","html-keyboard-response","42","2.1.0","190396","J=YES, F=NO","z1s433znd7","0","85","80","90","","","","","","lextale","false","false","","","","","","","",""
"1991","
  <p style=""font-size: 40px;"">cable</p>
  <p style=""font-size: 16px;"">J = YES &nbsp;&nbsp;&nbsp; F = NO</p>
","j","html-keyboard-response","43","2.1.0","192392","J=YES, F=NO","z1s433znd7","0","85","80","90","","","","","","lextale","true","false","","","","","","","",""
"13778","
  <p style=""font-size: 40px;"">shrivel</p>
  <p style=""font-size: 16px;"">J = YES &nbsp;&nbsp;&nbsp; F = NO</p>
","j","html-keyboard-response","44","2.1.0","206179","J=YES, F=NO","z1s433znd7","0","85","80","90","","","","","","lextale","true","false","","","","","","","",""
"2286","
  <p style=""font-size: 40px;"">tarnish</p>
  <p style=""font-size: 16px;"">J = YES &nbsp;&nbsp;&nbsp; F = NO</p>
","j","html-keyboard-response","45","2.1.0","208473","J=YES, F=NO","z1s433znd7","0","85","80","90","","","","","","lextale","true","false","","","","","","","",""
"2298","
  <p style=""font-size: 40px;"">blim</p>
  <p style=""font-size: 16px;"">J = YES &nbsp;&nbsp;&nbsp; F = NO</p>
","f","html-keyboard-response","46","2.1.0","210779","J=YES, F=NO","z1s433znd7","0","85","80","90","","","","","","lextale","false","false","","","","","","","",""
"2180","
  <p style=""font-size: 40px;"">stifle</p>
  <p style=""font-size: 16px;"">J = YES &nbsp;&nbsp;&nbsp; F = NO</p>
","j","html-keyboard-response","47","2.1.0","212965","J=YES, F=NO","z1s433znd7","0","85","80","90","","","","","","lextale","true","false","","","","","","","",""
"1451","
  <p style=""font-size: 40px;"">bint</p>
  <p style=""font-size: 16px;"">J = YES &nbsp;&nbsp;&nbsp; F = NO</p>
","f","html-keyboard-response","48","2.1.0","214424","J=YES, F=NO","z1s433znd7","0","85","80","90","","","","","","lextale","false","false","","","","","","","",""
"1192","
  <p style=""font-size: 40px;"">purple</p>
  <p style=""font-size: 16px;"">J = YES &nbsp;&nbsp;&nbsp; F = NO</p>
","j","html-keyboard-response","49","2.1.0","215622","J=YES, F=NO","z1s433znd7","0","85","80","90","","","","","","lextale","true","false","","","","","","","",""
"1535","
  <p style=""font-size: 40px;"">wriggle</p>
  <p style=""font-size: 16px;"">J = YES &nbsp;&nbsp;&nbsp; F = NO</p>
","j","html-keyboard-response","50","2.1.0","217164","J=YES, F=NO","z1s433znd7","0","85","80","90","","","","","","lextale","true","false","","","","","","","",""
"1612","
  <p style=""font-size: 40px;"">mangle</p>
  <p style=""font-size: 16px;"">J = YES &nbsp;&nbsp;&nbsp; F = NO</p>
","f","html-keyboard-response","51","2.1.0","218783","J=YES, F=NO","z1s433znd7","0","85","80","90","","","","","","lextale","true","false","","","","","","","",""
"1185","
  <p style=""font-size: 40px;"">shramp</p>
  <p style=""font-size: 16px;"">J = YES &nbsp;&nbsp;&nbsp; F = NO</p>
","f","html-keyboard-response","52","2.1.0","219976","J=YES, F=NO","z1s433znd7","0","85","80","90","","","","","","lextale","false","false","","","","","","","",""
"1541","
  <p style=""font-size: 40px;"">flirt</p>
  <p style=""font-size: 16px;"">J = YES &nbsp;&nbsp;&nbsp; F = NO</p>
","j","html-keyboard-response","53","2.1.0","221524","J=YES, F=NO","z1s433znd7","0","85","80","90","","","","","","lextale","true","false","","","","","","","",""
"1343","
  <p style=""font-size: 40px;"">frip</p>
  <p style=""font-size: 16px;"">J = YES &nbsp;&nbsp;&nbsp; F = NO</p>
","f","html-keyboard-response","54","2.1.0","222875","J=YES, F=NO","z1s433znd7","0","85","80","90","","","","","","lextale","false","false","","","","","","","",""
"1644","
  <p style=""font-size: 40px;"">tangle</p>
  <p style=""font-size: 16px;"">J = YES &nbsp;&nbsp;&nbsp; F = NO</p>
","j","html-keyboard-response","55","2.1.0","224529","J=YES, F=NO","z1s433znd7","0","85","80","90","","","","","","lextale","true","false","","","","","","","",""
"785","
  <p style=""font-size: 40px;"">crumble</p>
  <p style=""font-size: 16px;"">J = YES &nbsp;&nbsp;&nbsp; F = NO</p>
","j","html-keyboard-response","56","2.1.0","225322","J=YES, F=NO","z1s433znd7","0","85","80","90","","","","","","lextale","true","false","","","","","","","",""
"880","
  <p style=""font-size: 40px;"">wrinkle</p>
  <p style=""font-size: 16px;"">J = YES &nbsp;&nbsp;&nbsp; F = NO</p>
","j","html-keyboard-response","57","2.1.0","226208","J=YES, F=NO","z1s433znd7","0","85","80","90","","","","","","lextale","true","false","","","","","","","",""
"2573","
  <p style=""font-size: 40px;"">slumb</p>
  <p style=""font-size: 16px;"">J = YES &nbsp;&nbsp;&nbsp; F = NO</p>
","f","html-keyboard-response","58","2.1.0","228789","J=YES, F=NO","z1s433znd7","0","85","80","90","","","","","","lextale","false","false","","","","","","","",""
"1408","
  <p style=""font-size: 40px;"">jungle</p>
  <p style=""font-size: 16px;"">J = YES &nbsp;&nbsp;&nbsp; F = NO</p>
","j","html-keyboard-response","59","2.1.0","230205","J=YES, F=NO","z1s433znd7","0","85","80","90","","","","","","lextale","true","false","","","","","","","",""
"7922","
  <p style=""font-size: 40px;"">frolick</p>
  <p style=""font-size: 16px;"">J = YES &nbsp;&nbsp;&nbsp; F = NO</p>
","f","html-keyboard-response","60","2.1.0","238135","J=YES, F=NO","z1s433znd7","0","85","80","90","","","","","","lextale","false","false","","","","","","","",""
"3288","
      <h2>LexTALE Test Completed</h2>
      <p>Your LexTALE vocabulary score is: <strong>85%</strong></p>
      <p>Press any key to continue.</p>
    "," ","html-keyboard-response","61","2.1.0","241436","J=YES, F=NO","z1s433znd7","0","85","80","90","","","","","","","","","","","","","","","",""
"24586","
    <div style=""max-width: 800px; margin: auto; text-align: left;"">
      <h2>Break Time</h2>
      <p>You have completed the first part of the study.</p>
      <p>You may take a short <strong>30-second break</strong> before continuing.</p>
      <p>When you’re ready, press any key to continue to the final task.</p>
    </div>
  "," ","html-keyboard-response","62","2.1.0","266030","J=YES, F=NO","z1s433znd7","0","85","80","90","","","","","","","","","","","","","","","",""
"123069","
    <div style=""max-width: 800px; margin: auto; text-align: left;"">
      <h2>Part 2: Lexical Decision Task</h2>
      <p>You will now begin the second part of the study.</p>
      <p>Each trial will follow this sequence:</p>
      <ul>
        <li>A fixation cross (+) appears at the center of the screen.</li>
        <li>You will hear a short beep followed by a spoken word.</li>
        <li>A written word will appear briefly on the screen.</li>
      </ul>
      <p>Your task is to judge whether the <strong>written word</strong> is a real English word.</p>
      <p style=""margin-top: 1em;""><strong>Key responses:</strong></p>
      <ul>
        <li><strong>J</strong> = YES (real English word)</li>
        <li><strong>F</strong> = NO (not a real English word)</li>
      </ul>
      <p>Please respond as quickly and accurately as you can.</p>
      <p style=""margin-top: 2em;"">Press any key to continue.</p>
    </div>
  ","AudioVolumeUp","html-keyboard-response","63","2.1.0","389112","J=YES, F=NO","z1s433znd7","0","85","80","90","","","","","","","","","","","","","","","",""
"160","
    <div style=""max-width: 800px; margin: auto; text-align: left;"">
      <h2>Before You Begin</h2>
      <p>Make sure your sound is turned on.</p>
      <p>You will hear audio during each trial, but your decision should be based only on the <strong>written word</strong> you see on the screen.</p>
      <p><strong>Reminder:</strong></p>
      <ul>
        <li><strong>J</strong> = YES (real English word)</li>
        <li><strong>F</strong> = NO (not a real English word)</li>
      </ul>
      <p style=""margin-top: 2em;"">Press any key when you are ready to begin.</p>
    </div>
  ","AudioVolumeUp","html-keyboard-response","64","2.1.0","389279","J=YES, F=NO","z1s433znd7","0","85","80","90","","","","","","","","","","","","","","","",""
"240","
    <div style=""max-width: 800px; margin: auto; text-align: left;"">
      <h2>Part 2: Practice Trials</h2>
      <p>You will now complete a few <strong>practice trials</strong> to get familiar with the task.</p>
      <p>These trials are <strong>not scored</strong> and are only to help you get used to the format.</p>
      <p style=""margin-top: 2em;"">Press any key to begin.</p>
    </div>
  ","AudioVolumeUp","html-keyboard-response","65","2.1.0","389527","J=YES, F=NO","z1s433znd7","0","85","80","90","","","","","","","","","","","","","","","",""
"10272","<p>Starting practice block 1 of 2. Press any key to continue.</p>"," ","html-keyboard-response","66","2.1.0","399805","J=YES, F=NO","z1s433znd7","0","85","80","90","","","","","","","","","","","","","","","",""
"null","<p style=""font-size: 50px;"">+</p>","null","html-keyboard-response","67","2.1.0","400119","J=YES, F=NO","z1s433znd7","0","85","80","90","","","","","","","","","","","","","","","",""
"null","audio/beep-329314.mp3","null","audio-keyboard-response","68","2.1.0","403070","J=YES, F=NO","z1s433znd7","0","85","80","90","","","","","","","","","","","","","","","",""
"null","audio/cancer1.wav","null","audio-keyboard-response","69","2.1.0","403904","J=YES, F=NO","z1s433znd7","0","85","80","90","","","","","","","","","","","","","","","",""
"null","
          <p id=""word"" style=""font-size: 40px;"">draw</p>
          <p style=""font-size: 16px;"">J = YES &nbsp;&nbsp;&nbsp; F = NO</p>
        ","null","html-keyboard-response","70","2.1.0","405411","J=YES, F=NO","z1s433znd7","0","85","80","90","","","","","","","","","draw","cancer1","filler","filler","j","false","",""
"null","<p style=""font-size: 50px;"">+</p>","null","html-keyboard-response","71","2.1.0","405726","J=YES, F=NO","z1s433znd7","0","85","80","90","","","","","","","","","","","","","","","",""
"null","audio/beep-329314.mp3","null","audio-keyboard-response","72","2.1.0","407246","J=YES, F=NO","z1s433znd7","0","85","80","90","","","","","","","","","","","","","","","",""
"null","audio/sugar1.wav","null","audio-keyboard-response","73","2.1.0","407825","J=YES, F=NO","z1s433znd7","0","85","80","90","","","","","","","","","","","","","","","",""
"null","
          <p id=""word"" style=""font-size: 40px;"">glung</p>
          <p style=""font-size: 16px;"">J = YES &nbsp;&nbsp;&nbsp; F = NO</p>
        ","null","html-keyboard-response","74","2.1.0","409342","J=YES, F=NO","z1s433znd7","0","85","80","90","","","","","","","","","glung","sugar1","pseudoword","pseudoword","f","false","",""
"null","<p style=""font-size: 50px;"">+</p>","null","html-keyboard-response","75","2.1.0","409657","J=YES, F=NO","z1s433znd7","0","85","80","90","","","","","","","","","","","","","","","",""
"null","audio/beep-329314.mp3","null","audio-keyboard-response","76","2.1.0","411168","J=YES, F=NO","z1s433znd7","0","85","80","90","","","","","","","","","","","","","","","",""
"null","audio/arm.wav","null","audio-keyboard-response","77","2.1.0","411865","J=YES, F=NO","z1s433znd7","0","85","80","90","","","","","","","","","","","","","","","",""
"1096","
          <p id=""word"" style=""font-size: 40px;"">fold</p>
          <p style=""font-size: 16px;"">J = YES &nbsp;&nbsp;&nbsp; F = NO</p>
        ","f","html-keyboard-response","78","2.1.0","412964","J=YES, F=NO","z1s433znd7","0","85","80","90","","","","","","","","","fold","arm","filler","filler","j","false","",""
"null","<p style=""font-size: 50px;"">+</p>","null","html-keyboard-response","79","2.1.0","413269","J=YES, F=NO","z1s433znd7","0","85","80","90","","","","","","","","","","","","","","","",""
"null","audio/beep-329314.mp3","null","audio-keyboard-response","80","2.1.0","414785","J=YES, F=NO","z1s433znd7","0","85","80","90","","","","","","","","","","","","","","","",""
"null","audio/kettle1.wav","null","audio-keyboard-response","81","2.1.0","415324","J=YES, F=NO","z1s433znd7","0","85","80","90","","","","","","","","","","","","","","","",""
"723","
          <p id=""word"" style=""font-size: 40px;"">wrap</p>
          <p style=""font-size: 16px;"">J = YES &nbsp;&nbsp;&nbsp; F = NO</p>
        ","j","html-keyboard-response","82","2.1.0","416051","J=YES, F=NO","z1s433znd7","0","85","80","90","","","","","","","","","wrap","kettle1","filler","filler","j","true","",""
"null","<p style=""font-size: 50px;"">+</p>","null","html-keyboard-response","83","2.1.0","416368","J=YES, F=NO","z1s433znd7","0","85","80","90","","","","","","","","","","","","","","","",""
"null","audio/beep-329314.mp3","null","audio-keyboard-response","84","2.1.0","417885","J=YES, F=NO","z1s433znd7","0","85","80","90","","","","","","","","","","","","","","","",""
"null","audio/emotion.wav","null","audio-keyboard-response","85","2.1.0","418605","J=YES, F=NO","z1s433znd7","0","85","80","90","","","","","","","","","","","","","","","",""
"671","
          <p id=""word"" style=""font-size: 40px;"">devering</p>
          <p style=""font-size: 16px;"">J = YES &nbsp;&nbsp;&nbsp; F = NO</p>
        ","j","html-keyboard-response","86","2.1.0","419281","J=YES, F=NO","z1s433znd7","0","85","80","90","","","","","","","","","devering","emotion","pseudoword","pseudoword","f","false","",""
"null","<p style=""font-size: 50px;"">+</p>","null","html-keyboard-response","87","2.1.0","419587","J=YES, F=NO","z1s433znd7","0","85","80","90","","","","","","","","","","","","","","","",""
"null","audio/beep-329314.mp3","null","audio-keyboard-response","88","2.1.0","421105","J=YES, F=NO","z1s433znd7","0","85","80","90","","","","","","","","","","","","","","","",""
"null","audio/meal.wav","null","audio-keyboard-response","89","2.1.0","421807","J=YES, F=NO","z1s433znd7","0","85","80","90","","","","","","","","","","","","","","","",""
"1003","
          <p id=""word"" style=""font-size: 40px;"">gallite</p>
          <p style=""font-size: 16px;"">J = YES &nbsp;&nbsp;&nbsp; F = NO</p>
        ","f","html-keyboard-response","90","2.1.0","422815","J=YES, F=NO","z1s433znd7","0","85","80","90","","","","","","","","","gallite","meal","pseudoword","pseudoword","f","true","",""
"null","<p style=""font-size: 50px;"">+</p>","null","html-keyboard-response","91","2.1.0","423130","J=YES, F=NO","z1s433znd7","0","85","80","90","","","","","","","","","","","","","","","",""
"null","audio/beep-329314.mp3","null","audio-keyboard-response","92","2.1.0","424645","J=YES, F=NO","z1s433znd7","0","85","80","90","","","","","","","","","","","","","","","",""
"null","audio/account1.wav","null","audio-keyboard-response","93","2.1.0","425407","J=YES, F=NO","z1s433znd7","0","85","80","90","","","","","","","","","","","","","","","",""
"585","
          <p id=""word"" style=""font-size: 40px;"">paint</p>
          <p style=""font-size: 16px;"">J = YES &nbsp;&nbsp;&nbsp; F = NO</p>
        ","j","html-keyboard-response","94","2.1.0","425996","J=YES, F=NO","z1s433znd7","0","85","80","90","","","","","","","","","paint","account1","filler","filler","j","true","",""
"null","<p style=""font-size: 50px;"">+</p>","null","html-keyboard-response","95","2.1.0","426309","J=YES, F=NO","z1s433znd7","0","85","80","90","","","","","","","","","","","","","","","",""
"null","audio/beep-329314.mp3","null","audio-keyboard-response","96","2.1.0","427825","J=YES, F=NO","z1s433znd7","0","85","80","90","","","","","","","","","","","","","","","",""
"null","audio/brain.wav","null","audio-keyboard-response","97","2.1.0","428385","J=YES, F=NO","z1s433znd7","0","85","80","90","","","","","","","","","","","","","","","",""
"672","
          <p id=""word"" style=""font-size: 40px;"">throw</p>
          <p style=""font-size: 16px;"">J = YES &nbsp;&nbsp;&nbsp; F = NO</p>
        ","j","html-keyboard-response","98","2.1.0","429061","J=YES, F=NO","z1s433znd7","0","85","80","90","","","","","","","","","throw","brain","filler","filler","j","true","",""
"null","<p style=""font-size: 50px;"">+</p>","null","html-keyboard-response","99","2.1.0","429368","J=YES, F=NO","z1s433znd7","0","85","80","90","","","","","","","","","","","","","","","",""
"null","audio/beep-329314.mp3","null","audio-keyboard-response","100","2.1.0","430885","J=YES, F=NO","z1s433znd7","0","85","80","90","","","","","","","","","","","","","","","",""
"null","audio/budget1.wav","null","audio-keyboard-response","101","2.1.0","431525","J=YES, F=NO","z1s433znd7","0","85","80","90","","","","","","","","","","","","","","","",""
"700","
          <p id=""word"" style=""font-size: 40px;"">sulist</p>
          <p style=""font-size: 16px;"">J = YES &nbsp;&nbsp;&nbsp; F = NO</p>
        ","f","html-keyboard-response","102","2.1.0","432230","J=YES, F=NO","z1s433znd7","0","85","80","90","","","","","","","","","sulist","budget1","pseudoword","pseudoword","f","true","",""
"null","<p style=""font-size: 50px;"">+</p>","null","html-keyboard-response","103","2.1.0","432537","J=YES, F=NO","z1s433znd7","0","85","80","90","","","","","","","","","","","","","","","",""
"null","audio/beep-329314.mp3","null","audio-keyboard-response","104","2.1.0","434045","J=YES, F=NO","z1s433znd7","0","85","80","90","","","","","","","","","","","","","","","",""
"null","audio/ego.wav","null","audio-keyboard-response","105","2.1.0","434868","J=YES, F=NO","z1s433znd7","0","85","80","90","","","","","","","","","","","","","","","",""
"771","
          <p id=""word"" style=""font-size: 40px;"">bruite</p>
          <p style=""font-size: 16px;"">J = YES &nbsp;&nbsp;&nbsp; F = NO</p>
        ","f","html-keyboard-response","106","2.1.0","435647","J=YES, F=NO","z1s433znd7","0","85","80","90","","","","","","","","","bruite","ego","pseudoword","pseudoword","f","true","",""
"null","<p style=""font-size: 50px;"">+</p>","null","html-keyboard-response","107","2.1.0","435964","J=YES, F=NO","z1s433znd7","0","85","80","90","","","","","","","","","","","","","","","",""
"null","audio/beep-329314.mp3","null","audio-keyboard-response","108","2.1.0","437486","J=YES, F=NO","z1s433znd7","0","85","80","90","","","","","","","","","","","","","","","",""
"null","audio/bishop1.wav","null","audio-keyboard-response","109","2.1.0","438245","J=YES, F=NO","z1s433znd7","0","85","80","90","","","","","","","","","","","","","","","",""
"583","
          <p id=""word"" style=""font-size: 40px;"">play</p>
          <p style=""font-size: 16px;"">J = YES &nbsp;&nbsp;&nbsp; F = NO</p>
        ","j","html-keyboard-response","110","2.1.0","438832","J=YES, F=NO","z1s433znd7","0","85","80","90","","","","","","","","","play","bishop1","filler","filler","j","true","",""
"null","<p style=""font-size: 50px;"">+</p>","null","html-keyboard-response","111","2.1.0","439150","J=YES, F=NO","z1s433znd7","0","85","80","90","","","","","","","","","","","","","","","",""
"null","audio/beep-329314.mp3","null","audio-keyboard-response","112","2.1.0","440667","J=YES, F=NO","z1s433znd7","0","85","80","90","","","","","","","","","","","","","","","",""
"null","audio/floor.wav","null","audio-keyboard-response","113","2.1.0","441346","J=YES, F=NO","z1s433znd7","0","85","80","90","","","","","","","","","","","","","","","",""
"943","
          <p id=""word"" style=""font-size: 40px;"">mop</p>
          <p style=""font-size: 16px;"">J = YES &nbsp;&nbsp;&nbsp; F = NO</p>
        ","j","html-keyboard-response","114","2.1.0","442295","J=YES, F=NO","z1s433znd7","0","85","80","90","","","","","","","","","mop","floor","filler","filler","j","true","",""
"32876","<p>Starting practice block 2 of 2. Press any key to continue.</p>"," ","html-keyboard-response","115","2.1.0","475175","J=YES, F=NO","z1s433znd7","0","85","80","90","","","","","","","","","","","","","","","",""
"null","<p style=""font-size: 50px;"">+</p>","null","html-keyboard-response","116","2.1.0","475483","J=YES, F=NO","z1s433znd7","0","85","80","90","","","","","","","","","","","","","","","",""
"null","audio/beep-329314.mp3","null","audio-keyboard-response","117","2.1.0","477897","J=YES, F=NO","z1s433znd7","0","85","80","90","","","","","","","","","","","","","","","",""
"null","audio/theory1.wav","null","audio-keyboard-response","118","2.1.0","478936","J=YES, F=NO","z1s433znd7","0","85","80","90","","","","","","","","","","","","","","","",""
"933","
          <p id=""word"" style=""font-size: 40px;"">scolve</p>
          <p style=""font-size: 16px;"">J = YES &nbsp;&nbsp;&nbsp; F = NO</p>
        ","f","html-keyboard-response","119","2.1.0","479873","J=YES, F=NO","z1s433znd7","0","85","80","90","","","","","","","","","scolve","theory1","pseudoword","pseudoword","f","true","",""
"null","<p style=""font-size: 50px;"">+</p>","null","html-keyboard-response","120","2.1.0","480195","J=YES, F=NO","z1s433znd7","0","85","80","90","","","","","","","","","","","","","","","",""
"null","audio/beep-329314.mp3","null","audio-keyboard-response","121","2.1.0","481736","J=YES, F=NO","z1s433znd7","0","85","80","90","","","","","","","","","","","","","","","",""
"null","audio/alarm1.wav","null","audio-keyboard-response","122","2.1.0","482476","J=YES, F=NO","z1s433znd7","0","85","80","90","","","","","","","","","","","","","","","",""
"856","
          <p id=""word"" style=""font-size: 40px;"">swetp</p>
          <p style=""font-size: 16px;"">J = YES &nbsp;&nbsp;&nbsp; F = NO</p>
        ","f","html-keyboard-response","123","2.1.0","483336","J=YES, F=NO","z1s433znd7","0","85","80","90","","","","","","","","","swetp","alarm1","pseudoword","pseudoword","f","true","",""
"null","<p style=""font-size: 50px;"">+</p>","null","html-keyboard-response","124","2.1.0","483655","J=YES, F=NO","z1s433znd7","0","85","80","90","","","","","","","","","","","","","","","",""
"null","audio/beep-329314.mp3","null","audio-keyboard-response","125","2.1.0","485196","J=YES, F=NO","z1s433znd7","0","85","80","90","","","","","","","","","","","","","","","",""
"null","audio/arm.wav","null","audio-keyboard-response","126","2.1.0","485717","J=YES, F=NO","z1s433znd7","0","85","80","90","","","","","","","","","","","","","","","",""
"668","
          <p id=""word"" style=""font-size: 40px;"">pigne</p>
          <p style=""font-size: 16px;"">J = YES &nbsp;&nbsp;&nbsp; F = NO</p>
        ","f","html-keyboard-response","127","2.1.0","486391","J=YES, F=NO","z1s433znd7","0","85","80","90","","","","","","","","","pigne","arm","pseudoword","pseudoword","f","true","",""
"null","<p style=""font-size: 50px;"">+</p>","null","html-keyboard-response","128","2.1.0","486705","J=YES, F=NO","z1s433znd7","0","85","80","90","","","","","","","","","","","","","","","",""
"null","audio/beep-329314.mp3","null","audio-keyboard-response","129","2.1.0","488240","J=YES, F=NO","z1s433znd7","0","85","80","90","","","","","","","","","","","","","","","",""
"null","audio/relief.wav","null","audio-keyboard-response","130","2.1.0","489076","J=YES, F=NO","z1s433znd7","0","85","80","90","","","","","","","","","","","","","","","",""
"1523","
          <p id=""word"" style=""font-size: 40px;"">grigg</p>
          <p style=""font-size: 16px;"">J = YES &nbsp;&nbsp;&nbsp; F = NO</p>
        ","f","html-keyboard-response","131","2.1.0","490602","J=YES, F=NO","z1s433znd7","0","85","80","90","","","","","","","","","grigg","relief","pseudoword","pseudoword","f","true","",""
"null","<p style=""font-size: 50px;"">+</p>","null","html-keyboard-response","132","2.1.0","490919","J=YES, F=NO","z1s433znd7","0","85","80","90","","","","","","","","","","","","","","","",""
"null","audio/beep-329314.mp3","null","audio-keyboard-response","133","2.1.0","492457","J=YES, F=NO","z1s433znd7","0","85","80","90","","","","","","","","","","","","","","","",""
"null","audio/pattern.wav","null","audio-keyboard-response","134","2.1.0","493216","J=YES, F=NO","z1s433znd7","0","85","80","90","","","","","","","","","","","","","","","",""
"776","
          <p id=""word"" style=""font-size: 40px;"">tug</p>
          <p style=""font-size: 16px;"">J = YES &nbsp;&nbsp;&nbsp; F = NO</p>
        ","j","html-keyboard-response","135","2.1.0","493996","J=YES, F=NO","z1s433znd7","0","85","80","90","","","","","","","","","tug","pattern","filler","filler","j","true","",""
"null","<p style=""font-size: 50px;"">+</p>","null","html-keyboard-response","136","2.1.0","494309","J=YES, F=NO","z1s433znd7","0","85","80","90","","","","","","","","","","","","","","","",""
"null","audio/beep-329314.mp3","null","audio-keyboard-response","137","2.1.0","495837","J=YES, F=NO","z1s433znd7","0","85","80","90","","","","","","","","","","","","","","","",""
"null","audio/menu.wav","null","audio-keyboard-response","138","2.1.0","496479","J=YES, F=NO","z1s433znd7","0","85","80","90","","","","","","","","","","","","","","","",""
"689","
          <p id=""word"" style=""font-size: 40px;"">slice</p>
          <p style=""font-size: 16px;"">J = YES &nbsp;&nbsp;&nbsp; F = NO</p>
        ","j","html-keyboard-response","139","2.1.0","497175","J=YES, F=NO","z1s433znd7","0","85","80","90","","","","","","","","","slice","menu","filler","filler","j","true","",""
"null","<p style=""font-size: 50px;"">+</p>","null","html-keyboard-response","140","2.1.0","497481","J=YES, F=NO","z1s433znd7","0","85","80","90","","","","","","","","","","","","","","","",""
"null","audio/beep-329314.mp3","null","audio-keyboard-response","141","2.1.0","499017","J=YES, F=NO","z1s433znd7","0","85","80","90","","","","","","","","","","","","","","","",""
"null","audio/terrain.wav","null","audio-keyboard-response","142","2.1.0","499838","J=YES, F=NO","z1s433znd7","0","85","80","90","","","","","","","","","","","","","","","",""
"1074","
          <p id=""word"" style=""font-size: 40px;"">twist</p>
          <p style=""font-size: 16px;"">J = YES &nbsp;&nbsp;&nbsp; F = NO</p>
        ","j","html-keyboard-response","143","2.1.0","500917","J=YES, F=NO","z1s433znd7","0","85","80","90","","","","","","","","","twist","terrain","filler","filler","j","true","",""
"null","<p style=""font-size: 50px;"">+</p>","null","html-keyboard-response","144","2.1.0","501233","J=YES, F=NO","z1s433znd7","0","85","80","90","","","","","","","","","","","","","","","",""
"null","audio/beep-329314.mp3","null","audio-keyboard-response","145","2.1.0","502777","J=YES, F=NO","z1s433znd7","0","85","80","90","","","","","","","","","","","","","","","",""
"null","audio/client1.wav","null","audio-keyboard-response","146","2.1.0","503597","J=YES, F=NO","z1s433znd7","0","85","80","90","","","","","","","","","","","","","","","",""
"730","
          <p id=""word"" style=""font-size: 40px;"">droothe</p>
          <p style=""font-size: 16px;"">J = YES &nbsp;&nbsp;&nbsp; F = NO</p>
        ","f","html-keyboard-response","147","2.1.0","504331","J=YES, F=NO","z1s433znd7","0","85","80","90","","","","","","","","","droothe","client1","pseudoword","pseudoword","f","true","",""
"null","<p style=""font-size: 50px;"">+</p>","null","html-keyboard-response","148","2.1.0","504647","J=YES, F=NO","z1s433znd7","0","85","80","90","","","","","","","","","","","","","","","",""
"null","audio/beep-329314.mp3","null","audio-keyboard-response","149","2.1.0","506181","J=YES, F=NO","z1s433znd7","0","85","80","90","","","","","","","","","","","","","","","",""
"null","audio/effort.wav","null","audio-keyboard-response","150","2.1.0","506937","J=YES, F=NO","z1s433znd7","0","85","80","90","","","","","","","","","","","","","","","",""
"755","
          <p id=""word"" style=""font-size: 40px;"">whonk</p>
          <p style=""font-size: 16px;"">J = YES &nbsp;&nbsp;&nbsp; F = NO</p>
        ","f","html-keyboard-response","151","2.1.0","507698","J=YES, F=NO","z1s433znd7","0","85","80","90","","","","","","","","","whonk","effort","pseudoword","pseudoword","f","true","",""
"null","<p style=""font-size: 50px;"">+</p>","null","html-keyboard-response","152","2.1.0","508018","J=YES, F=NO","z1s433znd7","0","85","80","90","","","","","","","","","","","","","","","",""
"null","audio/beep-329314.mp3","null","audio-keyboard-response","153","2.1.0","509557","J=YES, F=NO","z1s433znd7","0","85","80","90","","","","","","","","","","","","","","","",""
"null","audio/butter1.wav","null","audio-keyboard-response","154","2.1.0","510037","J=YES, F=NO","z1s433znd7","0","85","80","90","","","","","","","","","","","","","","","",""
"941","
          <p id=""word"" style=""font-size: 40px;"">chew</p>
          <p style=""font-size: 16px;"">J = YES &nbsp;&nbsp;&nbsp; F = NO</p>
        ","j","html-keyboard-response","155","2.1.0","510983","J=YES, F=NO","z1s433znd7","0","85","80","90","","","","","","","","","chew","butter1","filler","filler","j","true","",""
"null","<p style=""font-size: 50px;"">+</p>","null","html-keyboard-response","156","2.1.0","511295","J=YES, F=NO","z1s433znd7","0","85","80","90","","","","","","","","","","","","","","","",""
"null","audio/beep-329314.mp3","null","audio-keyboard-response","157","2.1.0","512837","J=YES, F=NO","z1s433znd7","0","85","80","90","","","","","","","","","","","","","","","",""
"null","audio/alarm1.wav","null","audio-keyboard-response","158","2.1.0","513417","J=YES, F=NO","z1s433znd7","0","85","80","90","","","","","","","","","","","","","","","",""
"738","
          <p id=""word"" style=""font-size: 40px;"">lock</p>
          <p style=""font-size: 16px;"">J = YES &nbsp;&nbsp;&nbsp; F = NO</p>
        ","j","html-keyboard-response","159","2.1.0","514158","J=YES, F=NO","z1s433znd7","0","85","80","90","","","","","","","","","lock","alarm1","filler","filler","j","true","",""
"null","<p style=""font-size: 50px;"">+</p>","null","html-keyboard-response","160","2.1.0","514480","J=YES, F=NO","z1s433znd7","0","85","80","90","","","","","","","","","","","","","","","",""
"null","audio/beep-329314.mp3","null","audio-keyboard-response","161","2.1.0","516019","J=YES, F=NO","z1s433znd7","0","85","80","90","","","","","","","","","","","","","","","",""
"null","audio/heart1.wav","null","audio-keyboard-response","162","2.1.0","516900","J=YES, F=NO","z1s433znd7","0","85","80","90","","","","","","","","","","","","","","","",""
"713","
          <p id=""word"" style=""font-size: 40px;"">dralm</p>
          <p style=""font-size: 16px;"">J = YES &nbsp;&nbsp;&nbsp; F = NO</p>
        ","f","html-keyboard-response","163","2.1.0","517619","J=YES, F=NO","z1s433znd7","0","85","80","90","","","","","","","","","dralm","heart1","pseudoword","pseudoword","f","true","",""
"43876","
    <div style=""max-width: 800px; margin: auto; text-align: left;"">
      <h2>Part 2: Main Trials</h2>
      <p>Great job on the practice trials!</p>
      <p>You will now begin the <strong>main set of trials</strong>.</p>
      <p>Remember your key assignments:</p>
      <ul>
        <li><strong>J</strong> = YES (real English word)</li>
        <li><strong>F</strong> = NO (not a real English word)</li>
      </ul>
      <p>Try to respond as <strong>quickly and accurately</strong> as possible.</p>
      <p style=""margin-top: 2em;"">Press any key to begin the main trials.</p>
    </div>
  "," ","html-keyboard-response","164","2.1.0","561503","J=YES, F=NO","z1s433znd7","0","85","80","90","","","","","","","","","","","","","","","",""
"4571","<p>Starting main block 1 of 8. Press any key to continue.</p>"," ","html-keyboard-response","165","2.1.0","566080","J=YES, F=NO","z1s433znd7","0","85","80","90","","","","","","","","","","","","","","","",""
"null","<p style=""font-size: 50px;"">+</p>","null","html-keyboard-response","166","2.1.0","566391","J=YES, F=NO","z1s433znd7","0","85","80","90","","","","","","","","","","","","","","","",""
"null","audio/beep-329314.mp3","null","audio-keyboard-response","167","2.1.0","568801","J=YES, F=NO","z1s433znd7","0","85","80","90","","","","","","","","","","","","","","","",""
"null","audio/stain.wav","null","audio-keyboard-response","168","2.1.0","569710","J=YES, F=NO","z1s433znd7","0","85","80","90","","","","","","","","","","","","","","","",""
"952","
          <p id=""word"" style=""font-size: 40px;"">rumpsied</p>
          <p style=""font-size: 16px;"">J = YES &nbsp;&nbsp;&nbsp; F = NO</p>
        ","f","html-keyboard-response","169","2.1.0","570667","J=YES, F=NO","z1s433znd7","0","85","80","90","","","","","","","","","rumpsied","stain","pseudoword","pseudoword","f","true","",""
"null","<p style=""font-size: 50px;"">+</p>","null","html-keyboard-response","170","2.1.0","570984","J=YES, F=NO","z1s433znd7","0","85","80","90","","","","","","","","","","","","","","","",""
"null","audio/beep-329314.mp3","null","audio-keyboard-response","171","2.1.0","572523","J=YES, F=NO","z1s433znd7","0","85","80","90","","","","","","","","","","","","","","","",""
"null","audio/plot1.wav","null","audio-keyboard-response","172","2.1.0","573329","J=YES, F=NO","z1s433znd7","0","85","80","90","","","","","","","","","","","","","","","",""
"783","
          <p id=""word"" style=""font-size: 40px;"">glenter</p>
          <p style=""font-size: 16px;"">J = YES &nbsp;&nbsp;&nbsp; F = NO</p>
        ","f","html-keyboard-response","173","2.1.0","574117","J=YES, F=NO","z1s433znd7","0","85","80","90","","","","","","","","","glenter","plot1","pseudoword","pseudoword","f","true","",""
"null","<p style=""font-size: 50px;"">+</p>","null","html-keyboard-response","174","2.1.0","574431","J=YES, F=NO","z1s433znd7","0","85","80","90","","","","","","","","","","","","","","","",""
"null","audio/beep-329314.mp3","null","audio-keyboard-response","175","2.1.0","575960","J=YES, F=NO","z1s433znd7","0","85","80","90","","","","","","","","","","","","","","","",""
"null","audio/handle.wav","null","audio-keyboard-response","176","2.1.0","576649","J=YES, F=NO","z1s433znd7","0","85","80","90","","","","","","","","","","","","","","","",""
"898","
          <p id=""word"" style=""font-size: 40px;"">moutes</p>
          <p style=""font-size: 16px;"">J = YES &nbsp;&nbsp;&nbsp; F = NO</p>
        ","f","html-keyboard-response","177","2.1.0","577551","J=YES, F=NO","z1s433znd7","0","85","80","90","","","","","","","","","moutes","handle","pseudoword","pseudoword","f","true","",""
"null","<p style=""font-size: 50px;"">+</p>","null","html-keyboard-response","178","2.1.0","577866","J=YES, F=NO","z1s433znd7","0","85","80","90","","","","","","","","","","","","","","","",""
"null","audio/beep-329314.mp3","null","audio-keyboard-response","179","2.1.0","579399","J=YES, F=NO","z1s433znd7","0","85","80","90","","","","","","","","","","","","","","","",""
"null","audio/gift1.wav","null","audio-keyboard-response","180","2.1.0","580049","J=YES, F=NO","z1s433znd7","0","85","80","90","","","","","","","","","","","","","","","",""
"711","
          <p id=""word"" style=""font-size: 40px;"">protsh</p>
          <p style=""font-size: 16px;"">J = YES &nbsp;&nbsp;&nbsp; F = NO</p>
        ","f","html-keyboard-response","181","2.1.0","580764","J=YES, F=NO","z1s433znd7","0","85","80","90","","","","","","","","","protsh","gift1","pseudoword","pseudoword","f","true","",""
"null","<p style=""font-size: 50px;"">+</p>","null","html-keyboard-response","182","2.1.0","581082","J=YES, F=NO","z1s433znd7","0","85","80","90","","","","","","","","","","","","","","","",""
"null","audio/beep-329314.mp3","null","audio-keyboard-response","183","2.1.0","582619","J=YES, F=NO","z1s433znd7","0","85","80","90","","","","","","","","","","","","","","","",""
"null","audio/enemy1.wav","null","audio-keyboard-response","184","2.1.0","583272","J=YES, F=NO","z1s433znd7","0","85","80","90","","","","","","","","","","","","","","","",""
"631","
          <p id=""word"" style=""font-size: 40px;"">defeat</p>
          <p style=""font-size: 16px;"">J = YES &nbsp;&nbsp;&nbsp; F = NO</p>
        ","j","html-keyboard-response","185","2.1.0","583909","J=YES, F=NO","z1s433znd7","0","85","80","90","","","","","","","","","defeat","enemy1","literal","experimental","j","true","",""
"null","<p style=""font-size: 50px;"">+</p>","null","html-keyboard-response","186","2.1.0","584214","J=YES, F=NO","z1s433znd7","0","85","80","90","","","","","","","","","","","","","","","",""
"null","audio/beep-329314.mp3","null","audio-keyboard-response","187","2.1.0","585744","J=YES, F=NO","z1s433znd7","0","85","80","90","","","","","","","","","","","","","","","",""
"null","audio/belief.wav","null","audio-keyboard-response","188","2.1.0","586549","J=YES, F=NO","z1s433znd7","0","85","80","90","","","","","","","","","","","","","","","",""
"569","
          <p id=""word"" style=""font-size: 40px;"">read</p>
          <p style=""font-size: 16px;"">J = YES &nbsp;&nbsp;&nbsp; F = NO</p>
        ","j","html-keyboard-response","189","2.1.0","587122","J=YES, F=NO","z1s433znd7","0","85","80","90","","","","","","","","","read","belief","filler","filler","j","true","",""
"null","<p style=""font-size: 50px;"">+</p>","null","html-keyboard-response","190","2.1.0","587432","J=YES, F=NO","z1s433znd7","0","85","80","90","","","","","","","","","","","","","","","",""
"null","audio/beep-329314.mp3","null","audio-keyboard-response","191","2.1.0","588963","J=YES, F=NO","z1s433znd7","0","85","80","90","","","","","","","","","","","","","","","",""
"null","audio/corpse1.wav","null","audio-keyboard-response","192","2.1.0","589650","J=YES, F=NO","z1s433znd7","0","85","80","90","","","","","","","","","","","","","","","",""
"707","
          <p id=""word"" style=""font-size: 40px;"">glonet</p>
          <p style=""font-size: 16px;"">J = YES &nbsp;&nbsp;&nbsp; F = NO</p>
        ","f","html-keyboard-response","193","2.1.0","590361","J=YES, F=NO","z1s433znd7","0","85","80","90","","","","","","","","","glonet","corpse1","pseudoword","pseudoword","f","true","",""
"null","<p style=""font-size: 50px;"">+</p>","null","html-keyboard-response","194","2.1.0","590668","J=YES, F=NO","z1s433znd7","0","85","80","90","","","","","","","","","","","","","","","",""
"null","audio/beep-329314.mp3","null","audio-keyboard-response","195","2.1.0","592183","J=YES, F=NO","z1s433znd7","0","85","80","90","","","","","","","","","","","","","","","",""
"null","audio/winter.wav","null","audio-keyboard-response","196","2.1.0","592874","J=YES, F=NO","z1s433znd7","0","85","80","90","","","","","","","","","","","","","","","",""
"963","
          <p id=""word"" style=""font-size: 40px;"">straven</p>
          <p style=""font-size: 16px;"">J = YES &nbsp;&nbsp;&nbsp; F = NO</p>
        ","f","html-keyboard-response","197","2.1.0","593844","J=YES, F=NO","z1s433znd7","0","85","80","90","","","","","","","","","straven","winter","pseudoword","pseudoword","f","true","",""
"null","<p style=""font-size: 50px;"">+</p>","null","html-keyboard-response","198","2.1.0","594163","J=YES, F=NO","z1s433znd7","0","85","80","90","","","","","","","","","","","","","","","",""
"null","audio/beep-329314.mp3","null","audio-keyboard-response","199","2.1.0","595700","J=YES, F=NO","z1s433znd7","0","85","80","90","","","","","","","","","","","","","","","",""
"null","audio/voice.wav","null","audio-keyboard-response","200","2.1.0","596450","J=YES, F=NO","z1s433znd7","0","85","80","90","","","","","","","","","","","","","","","",""
"550","
          <p id=""word"" style=""font-size: 40px;"">flood</p>
          <p style=""font-size: 16px;"">J = YES &nbsp;&nbsp;&nbsp; F = NO</p>
        ","j","html-keyboard-response","201","2.1.0","597004","J=YES, F=NO","z1s433znd7","0","85","80","90","","","","","","","","","flood","voice","unrelated","experimental","j","true","",""
"null","<p style=""font-size: 50px;"">+</p>","null","html-keyboard-response","202","2.1.0","597317","J=YES, F=NO","z1s433znd7","0","85","80","90","","","","","","","","","","","","","","","",""
"null","audio/beep-329314.mp3","null","audio-keyboard-response","203","2.1.0","598860","J=YES, F=NO","z1s433znd7","0","85","80","90","","","","","","","","","","","","","","","",""
"null","audio/weight1.wav","null","audio-keyboard-response","204","2.1.0","599573","J=YES, F=NO","z1s433znd7","0","85","80","90","","","","","","","","","","","","","","","",""
"716","
          <p id=""word"" style=""font-size: 40px;"">crimsh</p>
          <p style=""font-size: 16px;"">J = YES &nbsp;&nbsp;&nbsp; F = NO</p>
        ","f","html-keyboard-response","205","2.1.0","600296","J=YES, F=NO","z1s433znd7","0","85","80","90","","","","","","","","","crimsh","weight1","pseudoword","pseudoword","f","true","",""
"null","<p style=""font-size: 50px;"">+</p>","null","html-keyboard-response","206","2.1.0","600603","J=YES, F=NO","z1s433znd7","0","85","80","90","","","","","","","","","","","","","","","",""
"null","audio/beep-329314.mp3","null","audio-keyboard-response","207","2.1.0","602140","J=YES, F=NO","z1s433znd7","0","85","80","90","","","","","","","","","","","","","","","",""
"null","audio/bishop1.wav","null","audio-keyboard-response","208","2.1.0","602710","J=YES, F=NO","z1s433znd7","0","85","80","90","","","","","","","","","","","","","","","",""
"543","
          <p id=""word"" style=""font-size: 40px;"">devour</p>
          <p style=""font-size: 16px;"">J = YES &nbsp;&nbsp;&nbsp; F = NO</p>
        ","j","html-keyboard-response","209","2.1.0","603257","J=YES, F=NO","z1s433znd7","0","85","80","90","","","","","","","","","devour","bishop1","unrelated","experimental","j","true","",""
"null","<p style=""font-size: 50px;"">+</p>","null","html-keyboard-response","210","2.1.0","603577","J=YES, F=NO","z1s433znd7","0","85","80","90","","","","","","","","","","","","","","","",""
"null","audio/beep-329314.mp3","null","audio-keyboard-response","211","2.1.0","605123","J=YES, F=NO","z1s433znd7","0","85","80","90","","","","","","","","","","","","","","","",""
"null","audio/lion1.wav","null","audio-keyboard-response","212","2.1.0","605930","J=YES, F=NO","z1s433znd7","0","85","80","90","","","","","","","","","","","","","","","",""
"815","
          <p id=""word"" style=""font-size: 40px;"">wrestle</p>
          <p style=""font-size: 16px;"">J = YES &nbsp;&nbsp;&nbsp; F = NO</p>
        ","j","html-keyboard-response","213","2.1.0","606749","J=YES, F=NO","z1s433znd7","0","85","80","90","","","","","","","","","wrestle","lion1","literal","experimental","j","true","",""
"null","<p style=""font-size: 50px;"">+</p>","null","html-keyboard-response","214","2.1.0","607062","J=YES, F=NO","z1s433znd7","0","85","80","90","","","","","","","","","","","","","","","",""
"null","audio/beep-329314.mp3","null","audio-keyboard-response","215","2.1.0","608604","J=YES, F=NO","z1s433znd7","0","85","80","90","","","","","","","","","","","","","","","",""
"null","audio/table1.wav","null","audio-keyboard-response","216","2.1.0","609272","J=YES, F=NO","z1s433znd7","0","85","80","90","","","","","","","","","","","","","","","",""
"745","
          <p id=""word"" style=""font-size: 40px;"">stimb</p>
          <p style=""font-size: 16px;"">J = YES &nbsp;&nbsp;&nbsp; F = NO</p>
        ","f","html-keyboard-response","217","2.1.0","610022","J=YES, F=NO","z1s433znd7","0","85","80","90","","","","","","","","","stimb","table1","pseudoword","pseudoword","f","true","",""
"null","<p style=""font-size: 50px;"">+</p>","null","html-keyboard-response","218","2.1.0","610333","J=YES, F=NO","z1s433znd7","0","85","80","90","","","","","","","","","","","","","","","",""
"null","audio/beep-329314.mp3","null","audio-keyboard-response","219","2.1.0","611863","J=YES, F=NO","z1s433znd7","0","85","80","90","","","","","","","","","","","","","","","",""
"null","audio/neck.wav","null","audio-keyboard-response","220","2.1.0","612530","J=YES, F=NO","z1s433znd7","0","85","80","90","","","","","","","","","","","","","","","",""
"552","
          <p id=""word"" style=""font-size: 40px;"">share</p>
          <p style=""font-size: 16px;"">J = YES &nbsp;&nbsp;&nbsp; F = NO</p>
        ","j","html-keyboard-response","221","2.1.0","613088","J=YES, F=NO","z1s433znd7","0","85","80","90","","","","","","","","","share","neck","unrelated","experimental","j","true","",""
"null","<p style=""font-size: 50px;"">+</p>","null","html-keyboard-response","222","2.1.0","613396","J=YES, F=NO","z1s433znd7","0","85","80","90","","","","","","","","","","","","","","","",""
"null","audio/beep-329314.mp3","null","audio-keyboard-response","223","2.1.0","614941","J=YES, F=NO","z1s433znd7","0","85","80","90","","","","","","","","","","","","","","","",""
"null","audio/novel.wav","null","audio-keyboard-response","224","2.1.0","615490","J=YES, F=NO","z1s433znd7","0","85","80","90","","","","","","","","","","","","","","","",""
"483","
          <p id=""word"" style=""font-size: 40px;"">type</p>
          <p style=""font-size: 16px;"">J = YES &nbsp;&nbsp;&nbsp; F = NO</p>
        ","j","html-keyboard-response","225","2.1.0","615977","J=YES, F=NO","z1s433znd7","0","85","80","90","","","","","","","","","type","novel","filler","filler","j","true","",""
"null","<p style=""font-size: 50px;"">+</p>","null","html-keyboard-response","226","2.1.0","616290","J=YES, F=NO","z1s433znd7","0","85","80","90","","","","","","","","","","","","","","","",""
"null","audio/beep-329314.mp3","null","audio-keyboard-response","227","2.1.0","617820","J=YES, F=NO","z1s433znd7","0","85","80","90","","","","","","","","","","","","","","","",""
"null","audio/gossip1.wav","null","audio-keyboard-response","228","2.1.0","618630","J=YES, F=NO","z1s433znd7","0","85","80","90","","","","","","","","","","","","","","","",""
"718","
          <p id=""word"" style=""font-size: 40px;"">camerish</p>
          <p style=""font-size: 16px;"">J = YES &nbsp;&nbsp;&nbsp; F = NO</p>
        ","f","html-keyboard-response","229","2.1.0","619352","J=YES, F=NO","z1s433znd7","0","85","80","90","","","","","","","","","camerish","gossip1","pseudoword","pseudoword","f","true","",""
"65742","<p>Excellent! You have finished block 1 of 8.</p>
                     <p>Feel free to take a 30 second break.</p>
                     <p>Press any key when you're ready to continue.</p>"," ","html-keyboard-response","230","2.1.0","685099","J=YES, F=NO","z1s433znd7","0","85","80","90","","","","","","","","","","","","","","","",""
"2997","<p>Starting main block 2 of 8. Press any key to continue.</p>"," ","html-keyboard-response","231","2.1.0","688103","J=YES, F=NO","z1s433znd7","0","85","80","90","","","","","","","","","","","","","","","",""
"null","<p style=""font-size: 50px;"">+</p>","null","html-keyboard-response","232","2.1.0","688407","J=YES, F=NO","z1s433znd7","0","85","80","90","","","","","","","","","","","","","","","",""
"null","audio/beep-329314.mp3","null","audio-keyboard-response","233","2.1.0","690933","J=YES, F=NO","z1s433znd7","0","85","80","90","","","","","","","","","","","","","","","",""
"null","audio/voice.wav","null","audio-keyboard-response","234","2.1.0","691732","J=YES, F=NO","z1s433znd7","0","85","80","90","","","","","","","","","","","","","","","",""
"864","
          <p id=""word"" style=""font-size: 40px;"">grintle</p>
          <p style=""font-size: 16px;"">J = YES &nbsp;&nbsp;&nbsp; F = NO</p>
        ","f","html-keyboard-response","235","2.1.0","692600","J=YES, F=NO","z1s433znd7","0","85","80","90","","","","","","","","","grintle","voice","pseudoword","pseudoword","f","true","",""
"null","<p style=""font-size: 50px;"">+</p>","null","html-keyboard-response","236","2.1.0","692915","J=YES, F=NO","z1s433znd7","0","85","80","90","","","","","","","","","","","","","","","",""
"null","audio/beep-329314.mp3","null","audio-keyboard-response","237","2.1.0","694453","J=YES, F=NO","z1s433znd7","0","85","80","90","","","","","","","","","","","","","","","",""
"null","audio/test1.wav","null","audio-keyboard-response","238","2.1.0","695275","J=YES, F=NO","z1s433znd7","0","85","80","90","","","","","","","","","","","","","","","",""
"654","
          <p id=""word"" style=""font-size: 40px;"">twopch</p>
          <p style=""font-size: 16px;"">J = YES &nbsp;&nbsp;&nbsp; F = NO</p>
        ","f","html-keyboard-response","239","2.1.0","695935","J=YES, F=NO","z1s433znd7","0","85","80","90","","","","","","","","","twopch","test1","pseudoword","pseudoword","f","true","",""
"null","<p style=""font-size: 50px;"">+</p>","null","html-keyboard-response","240","2.1.0","696243","J=YES, F=NO","z1s433znd7","0","85","80","90","","","","","","","","","","","","","","","",""
"null","audio/beep-329314.mp3","null","audio-keyboard-response","241","2.1.0","697773","J=YES, F=NO","z1s433znd7","0","85","80","90","","","","","","","","","","","","","","","",""
"null","audio/cloud1.wav","null","audio-keyboard-response","242","2.1.0","698492","J=YES, F=NO","z1s433znd7","0","85","80","90","","","","","","","","","","","","","","","",""
"712","
          <p id=""word"" style=""font-size: 40px;"">brotant</p>
          <p style=""font-size: 16px;"">J = YES &nbsp;&nbsp;&nbsp; F = NO</p>
        ","f","html-keyboard-response","243","2.1.0","699210","J=YES, F=NO","z1s433znd7","0","85","80","90","","","","","","","","","brotant","cloud1","pseudoword","pseudoword","f","true","",""
"null","<p style=""font-size: 50px;"">+</p>","null","html-keyboard-response","244","2.1.0","699524","J=YES, F=NO","z1s433znd7","0","85","80","90","","","","","","","","","","","","","","","",""
"null","audio/beep-329314.mp3","null","audio-keyboard-response","245","2.1.0","701056","J=YES, F=NO","z1s433znd7","0","85","80","90","","","","","","","","","","","","","","","",""
"null","audio/empire.wav","null","audio-keyboard-response","246","2.1.0","701933","J=YES, F=NO","z1s433znd7","0","85","80","90","","","","","","","","","","","","","","","",""
"589","
          <p id=""word"" style=""font-size: 40px;"">slorby</p>
          <p style=""font-size: 16px;"">J = YES &nbsp;&nbsp;&nbsp; F = NO</p>
        ","f","html-keyboard-response","247","2.1.0","702525","J=YES, F=NO","z1s433znd7","0","85","80","90","","","","","","","","","slorby","empire","pseudoword","pseudoword","f","true","",""
"null","<p style=""font-size: 50px;"">+</p>","null","html-keyboard-response","248","2.1.0","702833","J=YES, F=NO","z1s433znd7","0","85","80","90","","","","","","","","","","","","","","","",""
"null","audio/beep-329314.mp3","null","audio-keyboard-response","249","2.1.0","704373","J=YES, F=NO","z1s433znd7","0","85","80","90","","","","","","","","","","","","","","","",""
"null","audio/dollar.wav","null","audio-keyboard-response","250","2.1.0","704756","J=YES, F=NO","z1s433znd7","0","85","80","90","","","","","","","","","","","","","","","",""
"616","
          <p id=""word"" style=""font-size: 40px;"">gliptism</p>
          <p style=""font-size: 16px;"">J = YES &nbsp;&nbsp;&nbsp; F = NO</p>
        ","f","html-keyboard-response","251","2.1.0","705378","J=YES, F=NO","z1s433znd7","0","85","80","90","","","","","","","","","gliptism","dollar","pseudoword","pseudoword","f","true","",""
"null","<p style=""font-size: 50px;"">+</p>","null","html-keyboard-response","252","2.1.0","705694","J=YES, F=NO","z1s433znd7","0","85","80","90","","","","","","","","","","","","","","","",""
"null","audio/beep-329314.mp3","null","audio-keyboard-response","253","2.1.0","707238","J=YES, F=NO","z1s433znd7","0","85","80","90","","","","","","","","","","","","","","","",""
"null","audio/pig.wav","null","audio-keyboard-response","254","2.1.0","707632","J=YES, F=NO","z1s433znd7","0","85","80","90","","","","","","","","","","","","","","","",""
"562","
          <p id=""word"" style=""font-size: 40px;"">tirlike</p>
          <p style=""font-size: 16px;"">J = YES &nbsp;&nbsp;&nbsp; F = NO</p>
        ","f","html-keyboard-response","255","2.1.0","708198","J=YES, F=NO","z1s433znd7","0","85","80","90","","","","","","","","","tirlike","pig","pseudoword","pseudoword","f","true","",""
"null","<p style=""font-size: 50px;"">+</p>","null","html-keyboard-response","256","2.1.0","708505","J=YES, F=NO","z1s433znd7","0","85","80","90","","","","","","","","","","","","","","","",""
"null","audio/beep-329314.mp3","null","audio-keyboard-response","257","2.1.0","710033","J=YES, F=NO","z1s433znd7","0","85","80","90","","","","","","","","","","","","","","","",""
"null","audio/holiday1.wav","null","audio-keyboard-response","258","2.1.0","710956","J=YES, F=NO","z1s433znd7","0","85","80","90","","","","","","","","","","","","","","","",""
"738","
          <p id=""word"" style=""font-size: 40px;"">drivets</p>
          <p style=""font-size: 16px;"">J = YES &nbsp;&nbsp;&nbsp; F = NO</p>
        ","f","html-keyboard-response","259","2.1.0","711700","J=YES, F=NO","z1s433znd7","0","85","80","90","","","","","","","","","drivets","holiday1","pseudoword","pseudoword","f","true","",""
"null","<p style=""font-size: 50px;"">+</p>","null","html-keyboard-response","260","2.1.0","712017","J=YES, F=NO","z1s433znd7","0","85","80","90","","","","","","","","","","","","","","","",""
"null","audio/beep-329314.mp3","null","audio-keyboard-response","261","2.1.0","713553","J=YES, F=NO","z1s433znd7","0","85","80","90","","","","","","","","","","","","","","","",""
"null","audio/grass.wav","null","audio-keyboard-response","262","2.1.0","714373","J=YES, F=NO","z1s433znd7","0","85","80","90","","","","","","","","","","","","","","","",""
"786","
          <p id=""word"" style=""font-size: 40px;"">milames</p>
          <p style=""font-size: 16px;"">J = YES &nbsp;&nbsp;&nbsp; F = NO</p>
        ","f","html-keyboard-response","263","2.1.0","715163","J=YES, F=NO","z1s433znd7","0","85","80","90","","","","","","","","","milames","grass","pseudoword","pseudoword","f","true","",""
"null","<p style=""font-size: 50px;"">+</p>","null","html-keyboard-response","264","2.1.0","715469","J=YES, F=NO","z1s433znd7","0","85","80","90","","","","","","","","","","","","","","","",""
"null","audio/beep-329314.mp3","null","audio-keyboard-response","265","2.1.0","717013","J=YES, F=NO","z1s433znd7","0","85","80","90","","","","","","","","","","","","","","","",""
"null","audio/golf1.wav","null","audio-keyboard-response","266","2.1.0","717636","J=YES, F=NO","z1s433znd7","0","85","80","90","","","","","","","","","","","","","","","",""
"666","
          <p id=""word"" style=""font-size: 40px;"">drabble</p>
          <p style=""font-size: 16px;"">J = YES &nbsp;&nbsp;&nbsp; F = NO</p>
        ","j","html-keyboard-response","267","2.1.0","718309","J=YES, F=NO","z1s433znd7","0","85","80","90","","","","","","","","","drabble","golf1","pseudoword","pseudoword","f","false","",""
"null","<p style=""font-size: 50px;"">+</p>","null","html-keyboard-response","268","2.1.0","718616","J=YES, F=NO","z1s433znd7","0","85","80","90","","","","","","","","","","","","","","","",""
"null","audio/beep-329314.mp3","null","audio-keyboard-response","269","2.1.0","720156","J=YES, F=NO","z1s433znd7","0","85","80","90","","","","","","","","","","","","","","","",""
"null","audio/scar.wav","null","audio-keyboard-response","270","2.1.0","720995","J=YES, F=NO","z1s433znd7","0","85","80","90","","","","","","","","","","","","","","","",""
"848","
          <p id=""word"" style=""font-size: 40px;"">adelineate</p>
          <p style=""font-size: 16px;"">J = YES &nbsp;&nbsp;&nbsp; F = NO</p>
        ","f","html-keyboard-response","271","2.1.0","721848","J=YES, F=NO","z1s433znd7","0","85","80","90","","","","","","","","","adelineate","scar","pseudoword","pseudoword","f","true","",""
"null","<p style=""font-size: 50px;"">+</p>","null","html-keyboard-response","272","2.1.0","722158","J=YES, F=NO","z1s433znd7","0","85","80","90","","","","","","","","","","","","","","","",""
"null","audio/beep-329314.mp3","null","audio-keyboard-response","273","2.1.0","723693","J=YES, F=NO","z1s433znd7","0","85","80","90","","","","","","","","","","","","","","","",""
"null","audio/budget1.wav","null","audio-keyboard-response","274","2.1.0","724293","J=YES, F=NO","z1s433znd7","0","85","80","90","","","","","","","","","","","","","","","",""
"571","
          <p id=""word"" style=""font-size: 40px;"">cut</p>
          <p style=""font-size: 16px;"">J = YES &nbsp;&nbsp;&nbsp; F = NO</p>
        ","j","html-keyboard-response","275","2.1.0","724868","J=YES, F=NO","z1s433znd7","0","85","80","90","","","","","","","","","cut","budget1","metaphor","experimental","j","true","",""
"null","<p style=""font-size: 50px;"">+</p>","null","html-keyboard-response","276","2.1.0","725172","J=YES, F=NO","z1s433znd7","0","85","80","90","","","","","","","","","","","","","","","",""
"null","audio/beep-329314.mp3","null","audio-keyboard-response","277","2.1.0","726718","J=YES, F=NO","z1s433znd7","0","85","80","90","","","","","","","","","","","","","","","",""
"null","audio/pain1.wav","null","audio-keyboard-response","278","2.1.0","727193","J=YES, F=NO","z1s433znd7","0","85","80","90","","","","","","","","","","","","","","","",""
"999","
          <p id=""word"" style=""font-size: 40px;"">tritted</p>
          <p style=""font-size: 16px;"">J = YES &nbsp;&nbsp;&nbsp; F = NO</p>
        ","f","html-keyboard-response","279","2.1.0","728197","J=YES, F=NO","z1s433znd7","0","85","80","90","","","","","","","","","tritted","pain1","pseudoword","pseudoword","f","true","",""
"null","<p style=""font-size: 50px;"">+</p>","null","html-keyboard-response","280","2.1.0","728504","J=YES, F=NO","z1s433znd7","0","85","80","90","","","","","","","","","","","","","","","",""
"null","audio/beep-329314.mp3","null","audio-keyboard-response","281","2.1.0","730034","J=YES, F=NO","z1s433znd7","0","85","80","90","","","","","","","","","","","","","","","",""
"null","audio/breath.wav","null","audio-keyboard-response","282","2.1.0","730836","J=YES, F=NO","z1s433znd7","0","85","80","90","","","","","","","","","","","","","","","",""
"493","
          <p id=""word"" style=""font-size: 40px;"">pack</p>
          <p style=""font-size: 16px;"">J = YES &nbsp;&nbsp;&nbsp; F = NO</p>
        ","j","html-keyboard-response","283","2.1.0","731335","J=YES, F=NO","z1s433znd7","0","85","80","90","","","","","","","","","pack","breath","filler","filler","j","true","",""
"null","<p style=""font-size: 50px;"">+</p>","null","html-keyboard-response","284","2.1.0","731647","J=YES, F=NO","z1s433znd7","0","85","80","90","","","","","","","","","","","","","","","",""
"null","audio/beep-329314.mp3","null","audio-keyboard-response","285","2.1.0","733158","J=YES, F=NO","z1s433znd7","0","85","80","90","","","","","","","","","","","","","","","",""
"null","audio/cash1.wav","null","audio-keyboard-response","286","2.1.0","733793","J=YES, F=NO","z1s433znd7","0","85","80","90","","","","","","","","","","","","","","","",""
"776","
          <p id=""word"" style=""font-size: 40px;"">splear</p>
          <p style=""font-size: 16px;"">J = YES &nbsp;&nbsp;&nbsp; F = NO</p>
        ","f","html-keyboard-response","287","2.1.0","734573","J=YES, F=NO","z1s433znd7","0","85","80","90","","","","","","","","","splear","cash1","pseudoword","pseudoword","f","true","",""
"null","<p style=""font-size: 50px;"">+</p>","null","html-keyboard-response","288","2.1.0","734888","J=YES, F=NO","z1s433znd7","0","85","80","90","","","","","","","","","","","","","","","",""
"null","audio/beep-329314.mp3","null","audio-keyboard-response","289","2.1.0","736414","J=YES, F=NO","z1s433znd7","0","85","80","90","","","","","","","","","","","","","","","",""
"null","audio/topic.wav","null","audio-keyboard-response","290","2.1.0","737057","J=YES, F=NO","z1s433znd7","0","85","80","90","","","","","","","","","","","","","","","",""
"1029","
          <p id=""word"" style=""font-size: 40px;"">infortuitist</p>
          <p style=""font-size: 16px;"">J = YES &nbsp;&nbsp;&nbsp; F = NO</p>
        ","f","html-keyboard-response","291","2.1.0","738093","J=YES, F=NO","z1s433znd7","0","85","80","90","","","","","","","","","infortuitist","topic","pseudoword","pseudoword","f","true","",""
"null","<p style=""font-size: 50px;"">+</p>","null","html-keyboard-response","292","2.1.0","738407","J=YES, F=NO","z1s433znd7","0","85","80","90","","","","","","","","","","","","","","","",""
"null","audio/beep-329314.mp3","null","audio-keyboard-response","293","2.1.0","739934","J=YES, F=NO","z1s433znd7","0","85","80","90","","","","","","","","","","","","","","","",""
"null","audio/mile1.wav","null","audio-keyboard-response","294","2.1.0","740554","J=YES, F=NO","z1s433znd7","0","85","80","90","","","","","","","","","","","","","","","",""
"949","
          <p id=""word"" style=""font-size: 40px;"">writch</p>
          <p style=""font-size: 16px;"">J = YES &nbsp;&nbsp;&nbsp; F = NO</p>
        ","j","html-keyboard-response","295","2.1.0","741507","J=YES, F=NO","z1s433znd7","0","85","80","90","","","","","","","","","writch","mile1","pseudoword","pseudoword","f","false","",""
"9236","<p>Excellent! You have finished block 2 of 8.</p>
                     <p>Feel free to take a 30 second break.</p>
                     <p>Press any key when you're ready to continue.</p>"," ","html-keyboard-response","296","2.1.0","750748","J=YES, F=NO","z1s433znd7","0","85","80","90","","","","","","","","","","","","","","","",""
"1823","<p>Starting main block 3 of 8. Press any key to continue.</p>"," ","html-keyboard-response","297","2.1.0","752577","J=YES, F=NO","z1s433znd7","0","85","80","90","","","","","","","","","","","","","","","",""
"null","<p style=""font-size: 50px;"">+</p>","null","html-keyboard-response","298","2.1.0","752895","J=YES, F=NO","z1s433znd7","0","85","80","90","","","","","","","","","","","","","","","",""
"null","audio/beep-329314.mp3","null","audio-keyboard-response","299","2.1.0","754415","J=YES, F=NO","z1s433znd7","0","85","80","90","","","","","","","","","","","","","","","",""
"null","audio/size1.wav","null","audio-keyboard-response","300","2.1.0","755385","J=YES, F=NO","z1s433znd7","0","85","80","90","","","","","","","","","","","","","","","",""
"583","
          <p id=""word"" style=""font-size: 40px;"">clear</p>
          <p style=""font-size: 16px;"">J = YES &nbsp;&nbsp;&nbsp; F = NO</p>
        ","j","html-keyboard-response","301","2.1.0","755973","J=YES, F=NO","z1s433znd7","0","85","80","90","","","","","","","","","clear","size1","unrelated","experimental","j","true","",""
"null","<p style=""font-size: 50px;"">+</p>","null","html-keyboard-response","302","2.1.0","756284","J=YES, F=NO","z1s433znd7","0","85","80","90","","","","","","","","","","","","","","","",""
"null","audio/beep-329314.mp3","null","audio-keyboard-response","303","2.1.0","757815","J=YES, F=NO","z1s433znd7","0","85","80","90","","","","","","","","","","","","","","","",""
"null","audio/golf1.wav","null","audio-keyboard-response","304","2.1.0","758364","J=YES, F=NO","z1s433znd7","0","85","80","90","","","","","","","","","","","","","","","",""
"664","
          <p id=""word"" style=""font-size: 40px;"">bury</p>
          <p style=""font-size: 16px;"">J = YES &nbsp;&nbsp;&nbsp; F = NO</p>
        ","j","html-keyboard-response","305","2.1.0","759032","J=YES, F=NO","z1s433znd7","0","85","80","90","","","","","","","","","bury","golf1","unrelated","experimental","j","true","",""
"null","<p style=""font-size: 50px;"">+</p>","null","html-keyboard-response","306","2.1.0","759350","J=YES, F=NO","z1s433znd7","0","85","80","90","","","","","","","","","","","","","","","",""
"null","audio/beep-329314.mp3","null","audio-keyboard-response","307","2.1.0","760875","J=YES, F=NO","z1s433znd7","0","85","80","90","","","","","","","","","","","","","","","",""
"null","audio/roof1.wav","null","audio-keyboard-response","308","2.1.0","761524","J=YES, F=NO","z1s433znd7","0","85","80","90","","","","","","","","","","","","","","","",""
"716","
          <p id=""word"" style=""font-size: 40px;"">wronb</p>
          <p style=""font-size: 16px;"">J = YES &nbsp;&nbsp;&nbsp; F = NO</p>
        ","f","html-keyboard-response","309","2.1.0","762244","J=YES, F=NO","z1s433znd7","0","85","80","90","","","","","","","","","wronb","roof1","pseudoword","pseudoword","f","true","",""
"null","<p style=""font-size: 50px;"">+</p>","null","html-keyboard-response","310","2.1.0","762563","J=YES, F=NO","z1s433znd7","0","85","80","90","","","","","","","","","","","","","","","",""
"null","audio/beep-329314.mp3","null","audio-keyboard-response","311","2.1.0","764098","J=YES, F=NO","z1s433znd7","0","85","80","90","","","","","","","","","","","","","","","",""
"null","audio/flaw.wav","null","audio-keyboard-response","312","2.1.0","764905","J=YES, F=NO","z1s433znd7","0","85","80","90","","","","","","","","","","","","","","","",""
"671","
          <p id=""word"" style=""font-size: 40px;"">thwool</p>
          <p style=""font-size: 16px;"">J = YES &nbsp;&nbsp;&nbsp; F = NO</p>
        ","f","html-keyboard-response","313","2.1.0","765579","J=YES, F=NO","z1s433znd7","0","85","80","90","","","","","","","","","thwool","flaw","pseudoword","pseudoword","f","true","",""
"null","<p style=""font-size: 50px;"">+</p>","null","html-keyboard-response","314","2.1.0","765887","J=YES, F=NO","z1s433znd7","0","85","80","90","","","","","","","","","","","","","","","",""
"null","audio/beep-329314.mp3","null","audio-keyboard-response","315","2.1.0","767419","J=YES, F=NO","z1s433znd7","0","85","80","90","","","","","","","","","","","","","","","",""
"null","audio/cinema1.wav","null","audio-keyboard-response","316","2.1.0","768084","J=YES, F=NO","z1s433znd7","0","85","80","90","","","","","","","","","","","","","","","",""
"958","
          <p id=""word"" style=""font-size: 40px;"">murple</p>
          <p style=""font-size: 16px;"">J = YES &nbsp;&nbsp;&nbsp; F = NO</p>
        ","f","html-keyboard-response","317","2.1.0","769047","J=YES, F=NO","z1s433znd7","0","85","80","90","","","","","","","","","murple","cinema1","pseudoword","pseudoword","f","true","",""
"null","<p style=""font-size: 50px;"">+</p>","null","html-keyboard-response","318","2.1.0","769365","J=YES, F=NO","z1s433znd7","0","85","80","90","","","","","","","","","","","","","","","",""
"null","audio/beep-329314.mp3","null","audio-keyboard-response","319","2.1.0","770895","J=YES, F=NO","z1s433znd7","0","85","80","90","","","","","","","","","","","","","","","",""
"null","audio/effort.wav","null","audio-keyboard-response","320","2.1.0","771468","J=YES, F=NO","z1s433znd7","0","85","80","90","","","","","","","","","","","","","","","",""
"580","
          <p id=""word"" style=""font-size: 40px;"">invest</p>
          <p style=""font-size: 16px;"">J = YES &nbsp;&nbsp;&nbsp; F = NO</p>
        ","j","html-keyboard-response","321","2.1.0","772053","J=YES, F=NO","z1s433znd7","0","85","80","90","","","","","","","","","invest","effort","metaphor","experimental","j","true","",""
"null","<p style=""font-size: 50px;"">+</p>","null","html-keyboard-response","322","2.1.0","772360","J=YES, F=NO","z1s433znd7","0","85","80","90","","","","","","","","","","","","","","","",""
"null","audio/beep-329314.mp3","null","audio-keyboard-response","323","2.1.0","773895","J=YES, F=NO","z1s433znd7","0","85","80","90","","","","","","","","","","","","","","","",""
"null","audio/tunnel.wav","null","audio-keyboard-response","324","2.1.0","774345","J=YES, F=NO","z1s433znd7","0","85","80","90","","","","","","","","","","","","","","","",""
"865","
          <p id=""word"" style=""font-size: 40px;"">gred</p>
          <p style=""font-size: 16px;"">J = YES &nbsp;&nbsp;&nbsp; F = NO</p>
        ","f","html-keyboard-response","325","2.1.0","775213","J=YES, F=NO","z1s433znd7","0","85","80","90","","","","","","","","","gred","tunnel","pseudoword","pseudoword","f","true","",""
"null","<p style=""font-size: 50px;"">+</p>","null","html-keyboard-response","326","2.1.0","775519","J=YES, F=NO","z1s433znd7","0","85","80","90","","","","","","","","","","","","","","","",""
"null","audio/beep-329314.mp3","null","audio-keyboard-response","327","2.1.0","777055","J=YES, F=NO","z1s433znd7","0","85","80","90","","","","","","","","","","","","","","","",""
"null","audio/trust.wav","null","audio-keyboard-response","328","2.1.0","777808","J=YES, F=NO","z1s433znd7","0","85","80","90","","","","","","","","","","","","","","","",""
"847","
          <p id=""word"" style=""font-size: 40px;"">swint</p>
          <p style=""font-size: 16px;"">J = YES &nbsp;&nbsp;&nbsp; F = NO</p>
        ","f","html-keyboard-response","329","2.1.0","778659","J=YES, F=NO","z1s433znd7","0","85","80","90","","","","","","","","","swint","trust","pseudoword","pseudoword","f","true","",""
"null","<p style=""font-size: 50px;"">+</p>","null","html-keyboard-response","330","2.1.0","778973","J=YES, F=NO","z1s433znd7","0","85","80","90","","","","","","","","","","","","","","","",""
"null","audio/beep-329314.mp3","null","audio-keyboard-response","331","2.1.0","780515","J=YES, F=NO","z1s433znd7","0","85","80","90","","","","","","","","","","","","","","","",""
"null","audio/bomb1.wav","null","audio-keyboard-response","332","2.1.0","780925","J=YES, F=NO","z1s433znd7","0","85","80","90","","","","","","","","","","","","","","","",""
"558","
          <p id=""word"" style=""font-size: 40px;"">clean</p>
          <p style=""font-size: 16px;"">J = YES &nbsp;&nbsp;&nbsp; F = NO</p>
        ","j","html-keyboard-response","333","2.1.0","781488","J=YES, F=NO","z1s433znd7","0","85","80","90","","","","","","","","","clean","bomb1","filler","filler","j","true","",""
"null","<p style=""font-size: 50px;"">+</p>","null","html-keyboard-response","334","2.1.0","781804","J=YES, F=NO","z1s433znd7","0","85","80","90","","","","","","","","","","","","","","","",""
"null","audio/beep-329314.mp3","null","audio-keyboard-response","335","2.1.0","783335","J=YES, F=NO","z1s433znd7","0","85","80","90","","","","","","","","","","","","","","","",""
"null","audio/ankle1.wav","null","audio-keyboard-response","336","2.1.0","783986","J=YES, F=NO","z1s433znd7","0","85","80","90","","","","","","","","","","","","","","","",""
"499","
          <p id=""word"" style=""font-size: 40px;"">hurt</p>
          <p style=""font-size: 16px;"">J = YES &nbsp;&nbsp;&nbsp; F = NO</p>
        ","j","html-keyboard-response","337","2.1.0","784488","J=YES, F=NO","z1s433znd7","0","85","80","90","","","","","","","","","hurt","ankle1","literal","experimental","j","true","",""
"null","<p style=""font-size: 50px;"">+</p>","null","html-keyboard-response","338","2.1.0","784801","J=YES, F=NO","z1s433znd7","0","85","80","90","","","","","","","","","","","","","","","",""
"null","audio/beep-329314.mp3","null","audio-keyboard-response","339","2.1.0","786336","J=YES, F=NO","z1s433znd7","0","85","80","90","","","","","","","","","","","","","","","",""
"null","audio/price.wav","null","audio-keyboard-response","340","2.1.0","787145","J=YES, F=NO","z1s433znd7","0","85","80","90","","","","","","","","","","","","","","","",""
"500","
          <p id=""word"" style=""font-size: 40px;"">drop</p>
          <p style=""font-size: 16px;"">J = YES &nbsp;&nbsp;&nbsp; F = NO</p>
        ","j","html-keyboard-response","341","2.1.0","787648","J=YES, F=NO","z1s433znd7","0","85","80","90","","","","","","","","","drop","price","metaphor","experimental","j","true","",""
"null","<p style=""font-size: 50px;"">+</p>","null","html-keyboard-response","342","2.1.0","787957","J=YES, F=NO","z1s433znd7","0","85","80","90","","","","","","","","","","","","","","","",""
"null","audio/beep-329314.mp3","null","audio-keyboard-response","343","2.1.0","789495","J=YES, F=NO","z1s433znd7","0","85","80","90","","","","","","","","","","","","","","","",""
"null","audio/vehicle1.wav","null","audio-keyboard-response","344","2.1.0","790225","J=YES, F=NO","z1s433znd7","0","85","80","90","","","","","","","","","","","","","","","",""
"698","
          <p id=""word"" style=""font-size: 40px;"">dropt</p>
          <p style=""font-size: 16px;"">J = YES &nbsp;&nbsp;&nbsp; F = NO</p>
        ","f","html-keyboard-response","345","2.1.0","790926","J=YES, F=NO","z1s433znd7","0","85","80","90","","","","","","","","","dropt","vehicle1","pseudoword","pseudoword","f","true","",""
"null","<p style=""font-size: 50px;"">+</p>","null","html-keyboard-response","346","2.1.0","791231","J=YES, F=NO","z1s433znd7","0","85","80","90","","","","","","","","","","","","","","","",""
"null","audio/beep-329314.mp3","null","audio-keyboard-response","347","2.1.0","792776","J=YES, F=NO","z1s433znd7","0","85","80","90","","","","","","","","","","","","","","","",""
"null","audio/baby.wav","null","audio-keyboard-response","348","2.1.0","793505","J=YES, F=NO","z1s433znd7","0","85","80","90","","","","","","","","","","","","","","","",""
"683","
          <p id=""word"" style=""font-size: 40px;"">lift</p>
          <p style=""font-size: 16px;"">J = YES &nbsp;&nbsp;&nbsp; F = NO</p>
        ","j","html-keyboard-response","349","2.1.0","794192","J=YES, F=NO","z1s433znd7","0","85","80","90","","","","","","","","","lift","baby","filler","filler","j","true","",""
"null","<p style=""font-size: 50px;"">+</p>","null","html-keyboard-response","350","2.1.0","794496","J=YES, F=NO","z1s433znd7","0","85","80","90","","","","","","","","","","","","","","","",""
"null","audio/beep-329314.mp3","null","audio-keyboard-response","351","2.1.0","796036","J=YES, F=NO","z1s433znd7","0","85","80","90","","","","","","","","","","","","","","","",""
"null","audio/wealth1.wav","null","audio-keyboard-response","352","2.1.0","796667","J=YES, F=NO","z1s433znd7","0","85","80","90","","","","","","","","","","","","","","","",""
"830","
          <p id=""word"" style=""font-size: 40px;"">possess</p>
          <p style=""font-size: 16px;"">J = YES &nbsp;&nbsp;&nbsp; F = NO</p>
        ","f","html-keyboard-response","353","2.1.0","797501","J=YES, F=NO","z1s433znd7","0","85","80","90","","","","","","","","","possess","wealth1","literal","experimental","j","false","",""
"null","<p style=""font-size: 50px;"">+</p>","null","html-keyboard-response","354","2.1.0","797814","J=YES, F=NO","z1s433znd7","0","85","80","90","","","","","","","","","","","","","","","",""
"null","audio/beep-329314.mp3","null","audio-keyboard-response","355","2.1.0","799356","J=YES, F=NO","z1s433znd7","0","85","80","90","","","","","","","","","","","","","","","",""
"null","audio/prisoner.wav","null","audio-keyboard-response","356","2.1.0","799926","J=YES, F=NO","z1s433znd7","0","85","80","90","","","","","","","","","","","","","","","",""
"1037","
          <p id=""word"" style=""font-size: 40px;"">egotian</p>
          <p style=""font-size: 16px;"">J = YES &nbsp;&nbsp;&nbsp; F = NO</p>
        ","f","html-keyboard-response","357","2.1.0","800967","J=YES, F=NO","z1s433znd7","0","85","80","90","","","","","","","","","egotian","prisoner","pseudoword","pseudoword","f","true","",""
"null","<p style=""font-size: 50px;"">+</p>","null","html-keyboard-response","358","2.1.0","801284","J=YES, F=NO","z1s433znd7","0","85","80","90","","","","","","","","","","","","","","","",""
"null","audio/beep-329314.mp3","null","audio-keyboard-response","359","2.1.0","802817","J=YES, F=NO","z1s433znd7","0","85","80","90","","","","","","","","","","","","","","","",""
"null","audio/news.wav","null","audio-keyboard-response","360","2.1.0","803726","J=YES, F=NO","z1s433znd7","0","85","80","90","","","","","","","","","","","","","","","",""
"595","
          <p id=""word"" style=""font-size: 40px;"">digest</p>
          <p style=""font-size: 16px;"">J = YES &nbsp;&nbsp;&nbsp; F = NO</p>
        ","j","html-keyboard-response","361","2.1.0","804326","J=YES, F=NO","z1s433znd7","0","85","80","90","","","","","","","","","digest","news","metaphor","experimental","j","true","",""
"2278","<p>Excellent! You have finished block 3 of 8.</p>
                     <p>Feel free to take a 30 second break.</p>
                     <p>Press any key when you're ready to continue.</p>"," ","html-keyboard-response","362","2.1.0","806607","J=YES, F=NO","z1s433znd7","0","85","80","90","","","","","","","","","","","","","","","",""
"1145","<p>Starting main block 4 of 8. Press any key to continue.</p>"," ","html-keyboard-response","363","2.1.0","807756","J=YES, F=NO","z1s433znd7","0","85","80","90","","","","","","","","","","","","","","","",""
"null","<p style=""font-size: 50px;"">+</p>","null","html-keyboard-response","364","2.1.0","808072","J=YES, F=NO","z1s433znd7","0","85","80","90","","","","","","","","","","","","","","","",""
"null","audio/beep-329314.mp3","null","audio-keyboard-response","365","2.1.0","809616","J=YES, F=NO","z1s433znd7","0","85","80","90","","","","","","","","","","","","","","","",""
"null","audio/ankle1.wav","null","audio-keyboard-response","366","2.1.0","810126","J=YES, F=NO","z1s433znd7","0","85","80","90","","","","","","","","","","","","","","","",""
"477","
          <p id=""word"" style=""font-size: 40px;"">kick</p>
          <p style=""font-size: 16px;"">J = YES &nbsp;&nbsp;&nbsp; F = NO</p>
        ","j","html-keyboard-response","367","2.1.0","810607","J=YES, F=NO","z1s433znd7","0","85","80","90","","","","","","","","","kick","ankle1","filler","filler","j","true","",""
"null","<p style=""font-size: 50px;"">+</p>","null","html-keyboard-response","368","2.1.0","810915","J=YES, F=NO","z1s433znd7","0","85","80","90","","","","","","","","","","","","","","","",""
"null","audio/beep-329314.mp3","null","audio-keyboard-response","369","2.1.0","812456","J=YES, F=NO","z1s433znd7","0","85","80","90","","","","","","","","","","","","","","","",""
"null","audio/uncle1.wav","null","audio-keyboard-response","370","2.1.0","813166","J=YES, F=NO","z1s433znd7","0","85","80","90","","","","","","","","","","","","","","","",""
"816","
          <p id=""word"" style=""font-size: 40px;"">dramble</p>
          <p style=""font-size: 16px;"">J = YES &nbsp;&nbsp;&nbsp; F = NO</p>
        ","f","html-keyboard-response","371","2.1.0","813987","J=YES, F=NO","z1s433znd7","0","85","80","90","","","","","","","","","dramble","uncle1","pseudoword","pseudoword","f","true","",""
"null","<p style=""font-size: 50px;"">+</p>","null","html-keyboard-response","372","2.1.0","814306","J=YES, F=NO","z1s433znd7","0","85","80","90","","","","","","","","","","","","","","","",""
"null","audio/beep-329314.mp3","null","audio-keyboard-response","373","2.1.0","815837","J=YES, F=NO","z1s433znd7","0","85","80","90","","","","","","","","","","","","","","","",""
"null","audio/chance.wav","null","audio-keyboard-response","374","2.1.0","816666","J=YES, F=NO","z1s433znd7","0","85","80","90","","","","","","","","","","","","","","","",""
"572","
          <p id=""word"" style=""font-size: 40px;"">seize</p>
          <p style=""font-size: 16px;"">J = YES &nbsp;&nbsp;&nbsp; F = NO</p>
        ","j","html-keyboard-response","375","2.1.0","817241","J=YES, F=NO","z1s433znd7","0","85","80","90","","","","","","","","","seize","chance","metaphor","experimental","j","true","",""
"null","<p style=""font-size: 50px;"">+</p>","null","html-keyboard-response","376","2.1.0","817546","J=YES, F=NO","z1s433znd7","0","85","80","90","","","","","","","","","","","","","","","",""
"null","audio/beep-329314.mp3","null","audio-keyboard-response","377","2.1.0","819081","J=YES, F=NO","z1s433znd7","0","85","80","90","","","","","","","","","","","","","","","",""
"null","audio/window1.wav","null","audio-keyboard-response","378","2.1.0","819866","J=YES, F=NO","z1s433znd7","0","85","80","90","","","","","","","","","","","","","","","",""
"600","
          <p id=""word"" style=""font-size: 40px;"">toss</p>
          <p style=""font-size: 16px;"">J = YES &nbsp;&nbsp;&nbsp; F = NO</p>
        ","j","html-keyboard-response","379","2.1.0","820470","J=YES, F=NO","z1s433znd7","0","85","80","90","","","","","","","","","toss","window1","filler","filler","j","true","",""
"null","<p style=""font-size: 50px;"">+</p>","null","html-keyboard-response","380","2.1.0","820785","J=YES, F=NO","z1s433znd7","0","85","80","90","","","","","","","","","","","","","","","",""
"null","audio/beep-329314.mp3","null","audio-keyboard-response","381","2.1.0","822317","J=YES, F=NO","z1s433znd7","0","85","80","90","","","","","","","","","","","","","","","",""
"null","audio/planet1.wav","null","audio-keyboard-response","382","2.1.0","823026","J=YES, F=NO","z1s433znd7","0","85","80","90","","","","","","","","","","","","","","","",""
"448","
          <p id=""word"" style=""font-size: 40px;"">save</p>
          <p style=""font-size: 16px;"">J = YES &nbsp;&nbsp;&nbsp; F = NO</p>
        ","j","html-keyboard-response","383","2.1.0","823479","J=YES, F=NO","z1s433znd7","0","85","80","90","","","","","","","","","save","planet1","metaphor","experimental","j","true","",""
"null","<p style=""font-size: 50px;"">+</p>","null","html-keyboard-response","384","2.1.0","823790","J=YES, F=NO","z1s433znd7","0","85","80","90","","","","","","","","","","","","","","","",""
"null","audio/beep-329314.mp3","null","audio-keyboard-response","385","2.1.0","825317","J=YES, F=NO","z1s433znd7","0","85","80","90","","","","","","","","","","","","","","","",""
"null","audio/purpose.wav","null","audio-keyboard-response","386","2.1.0","826046","J=YES, F=NO","z1s433znd7","0","85","80","90","","","","","","","","","","","","","","","",""
"828","
          <p id=""word"" style=""font-size: 40px;"">whigm</p>
          <p style=""font-size: 16px;"">J = YES &nbsp;&nbsp;&nbsp; F = NO</p>
        ","f","html-keyboard-response","387","2.1.0","826878","J=YES, F=NO","z1s433znd7","0","85","80","90","","","","","","","","","whigm","purpose","pseudoword","pseudoword","f","true","",""
"null","<p style=""font-size: 50px;"">+</p>","null","html-keyboard-response","388","2.1.0","827191","J=YES, F=NO","z1s433znd7","0","85","80","90","","","","","","","","","","","","","","","",""
"null","audio/beep-329314.mp3","null","audio-keyboard-response","389","2.1.0","828717","J=YES, F=NO","z1s433znd7","0","85","80","90","","","","","","","","","","","","","","","",""
"null","audio/tax1.wav","null","audio-keyboard-response","390","2.1.0","829486","J=YES, F=NO","z1s433znd7","0","85","80","90","","","","","","","","","","","","","","","",""
"741","
          <p id=""word"" style=""font-size: 40px;"">snate</p>
          <p style=""font-size: 16px;"">J = YES &nbsp;&nbsp;&nbsp; F = NO</p>
