"rt","stimulus","response","trial_type","trial_index","plugin_version","time_elapsed","response_mapping","subject_id","list_index","lextale_score","lextale_word_score","lextale_nonword_score","success","timeout","failed_images","failed_audio","failed_video","task","isWord","isDummy","target","prime","prime_type","stimulus_type","correct_response","correct","section","question_order"
"19985","
    <div style=""max-width: 800px; margin: auto; text-align: left;"">
      <h2>STANFORD UNIVERSITY</h2>
      <h3>Research Information Sheet</h3>
      <p><strong>Protocol Director:</strong> Robert Hawkins<br>
      <strong>Protocol Title:</strong> Communication and social cognition in natural audiovisual contexts<br>
      <strong>IRB#:</strong> 77226</p>

      <p><strong>DESCRIPTION:</strong> You are invited to participate in a research study about language and communication. The purpose of the research is to understand how you interact and communicate with other people in naturalistic settings as a fluent English speaker. This research will be conducted through the Prolific platform, including participants from the US, UK, and Canada. If you decide to participate in this research, you will play a communication game in a group with one or more partners.</p>

      <p><strong>TIME INVOLVEMENT:</strong> The task will last the amount of time advertised on Prolific. You are free to withdraw from the study at any time.</p>

      <p><strong>RISKS AND BENEFITS:</strong> You may become frustrated if your partner gets distracted, or experience discomfort if other participants in your group send text that is inappropriate for the task. We ask you to please be respectful of other participants you might be interacting with to mitigate these risks. You may also experience discomfort when being asked to discuss or challenge emotionally salient political beliefs. Study data will be stored securely, in compliance with Stanford University standards, minimizing the risk of confidentiality breach. This study advances our scientific understanding of how people communicate and collaborate in naturalistic settings. This study may lead to further insights about what can go wrong in teamwork, suggest potential interventions to overcome these barriers, and help to develop assistive technologies that collaborate with human partners. We cannot and do not guarantee or promise that you will receive any benefits from this study.</p>

      <p><strong>PAYMENTS:</strong> You will receive payment in the amount advertised on Prolific. If you do not complete this study, you will receive prorated payment based on the time that you have spent. Additionally, you may be eligible for bonus payments as described in the instructions.</p>

      <p><strong>PARTICIPANT’S RIGHTS:</strong> If you have read this form and have decided to participate in this project, please understand your participation is voluntary and you have the right to withdraw your consent or discontinue participation at any time without penalty or loss of benefits to which you are otherwise entitled. The alternative is not to participate. You have the right to refuse to answer particular questions. The results of this research study may be presented at scientific or professional meetings or published in scientific journals. Your individual privacy will be maintained in all published and written data resulting from the study. In accordance with scientific norms, the data from this study may be used or shared with other researchers for future research (after removing personally identifying information) without additional consent from you.</p>

      <p><strong>CONTACT INFORMATION:</strong><br>
      Questions: If you have any questions, concerns or complaints about this research, its procedures, risks and benefits, contact the Protocol Director, Robert Hawkins (<a href=""mailto:rdhawkins@stanford.edu"">rdhawkins@stanford.edu</a>, 217-549-6923).<br>
      Independent Contact: If you are not satisfied with how this study is being conducted, or if you have any concerns, complaints, or general questions about the research or your rights as a participant, please contact the Stanford Institutional Review Board (IRB) to speak to someone independent of the research team at 650-723-2480 or toll free at 1-866-680-2906, or email at <a href=""mailto:irbnon-med@stanford.edu"">irbnon-med@stanford.edu</a>. You can also write to the Stanford IRB, Stanford University, 1705 El Camino Real, Palo Alto, CA 94306.</p>

      <p><strong>Please save or print a copy of this page for your records.</strong></p>
      <p>If you agree to participate in this research, click ""Continue"" below.</p>
    </div>
  ","0","html-button-response","0","2.1.0","19993","J=YES, F=NO","zbpw4hbyd4","1","71","57","85","","","","","","","","","","","","","","","",""
"6547","
    <div style=""max-width: 800px; margin: auto; text-align: left;"">
      <h2>Welcome!</h2>
      <p>Thank you for participating in this study. The experiment consists of three parts:</p>
      <ol>
        <li>An English vocabulary test</li>
        <li>A main task in which you will hear and see words, and decide whether the written word is a real English word</li>
        <li>A brief survey about your background</li>
      </ol>
      <p>Each part will be introduced before it begins.</p>
      <p>Please make sure you are in a quiet environment and can hear audio clearly for the final task.</p>
      <p style=""margin-top: 2em;"">Press any key to begin.</p>
    </div>
  "," ","html-keyboard-response","1","2.1.0","26544","J=YES, F=NO","zbpw4hbyd4","1","71","57","85","","","","","","","","","","","","","","","",""
"","","","preload","2","2.1.0","28843","J=YES, F=NO","zbpw4hbyd4","1","71","57","85","true","false","[]","[]","[]","","","","","","","","","","",""
"2555","
    <div style=""max-width: 800px; margin: auto; text-align: left;"">
      <h2>Part 1: Vocabulary Test</h2>
      <p>You will now complete the first part of the study: a short English vocabulary test.</p>
      <p>This test is called <strong>LexTALE</strong> and helps us get a general sense of your English proficiency.</p>
      <p style=""margin-top: 2em;"">Press any key to continue.</p>
    </div>
  "," ","html-keyboard-response","3","2.1.0","31399","J=YES, F=NO","zbpw4hbyd4","1","71","57","85","","","","","","","","","","","","","","","",""
"10363","
    <div style=""max-width: 800px; margin: auto; text-align: left;"">
      <h2>LexTALE Vocabulary Test</h2>
      <p>In this test, you will see a series of letter strings—one at a time.</p>
      <p>Your task is to decide whether each string is a real English word.</p>
      <p><strong>Key responses:</strong></p>
      <ul>
        <li><strong>J</strong> = YES (real English word)</li>
        <li><strong>F</strong> = NO (not a real English word)</li>
      </ul>
      <p>There is no time limit, but please try to be accurate.</p>
      <p style=""margin-top: 2em;"">Press any key to begin.</p>
    </div>
  "," ","html-keyboard-response","4","2.1.0","41765","J=YES, F=NO","zbpw4hbyd4","1","71","57","85","","","","","","","","","","","","","","","",""
"2152","
  <p style=""font-size: 40px;"">platery</p>
  <p style=""font-size: 16px;"">J = YES &nbsp;&nbsp;&nbsp; F = NO</p>
","j","html-keyboard-response","5","2.1.0","43920","J=YES, F=NO","zbpw4hbyd4","1","71","57","85","","","","","","lextale","false","true","","","","","","","",""
"1461","
  <p style=""font-size: 40px;"">denial</p>
  <p style=""font-size: 16px;"">J = YES &nbsp;&nbsp;&nbsp; F = NO</p>
","j","html-keyboard-response","6","2.1.0","45384","J=YES, F=NO","zbpw4hbyd4","1","71","57","85","","","","","","lextale","true","true","","","","","","","",""
"3072","
  <p style=""font-size: 40px;"">marrit</p>
  <p style=""font-size: 16px;"">J = YES &nbsp;&nbsp;&nbsp; F = NO</p>
","f","html-keyboard-response","7","2.1.0","48459","J=YES, F=NO","zbpw4hbyd4","1","71","57","85","","","","","","lextale","false","true","","","","","","","",""
"1117","
  <p style=""font-size: 40px;"">bottle</p>
  <p style=""font-size: 16px;"">J = YES &nbsp;&nbsp;&nbsp; F = NO</p>
","j","html-keyboard-response","8","2.1.0","49579","J=YES, F=NO","zbpw4hbyd4","1","71","57","85","","","","","","lextale","true","false","","","","","","","",""
"1957","
  <p style=""font-size: 40px;"">birst</p>
  <p style=""font-size: 16px;"">J = YES &nbsp;&nbsp;&nbsp; F = NO</p>
","f","html-keyboard-response","9","2.1.0","51539","J=YES, F=NO","zbpw4hbyd4","1","71","57","85","","","","","","lextale","false","false","","","","","","","",""
"1163","
  <p style=""font-size: 40px;"">envy</p>
  <p style=""font-size: 16px;"">J = YES &nbsp;&nbsp;&nbsp; F = NO</p>
","j","html-keyboard-response","10","2.1.0","52705","J=YES, F=NO","zbpw4hbyd4","1","71","57","85","","","","","","lextale","true","false","","","","","","","",""
"2336","
  <p style=""font-size: 40px;"">brang</p>
  <p style=""font-size: 16px;"">J = YES &nbsp;&nbsp;&nbsp; F = NO</p>
","f","html-keyboard-response","11","2.1.0","55043","J=YES, F=NO","zbpw4hbyd4","1","71","57","85","","","","","","lextale","false","false","","","","","","","",""
"2083","
  <p style=""font-size: 40px;"">huge</p>
  <p style=""font-size: 16px;"">J = YES &nbsp;&nbsp;&nbsp; F = NO</p>
","j","html-keyboard-response","12","2.1.0","57129","J=YES, F=NO","zbpw4hbyd4","1","71","57","85","","","","","","lextale","true","false","","","","","","","",""
"1884","
  <p style=""font-size: 40px;"">plove</p>
  <p style=""font-size: 16px;"">J = YES &nbsp;&nbsp;&nbsp; F = NO</p>
","f","html-keyboard-response","13","2.1.0","59015","J=YES, F=NO","zbpw4hbyd4","1","71","57","85","","","","","","lextale","false","false","","","","","","","",""
"839","
  <p style=""font-size: 40px;"">border</p>
  <p style=""font-size: 16px;"">J = YES &nbsp;&nbsp;&nbsp; F = NO</p>
","j","html-keyboard-response","14","2.1.0","59857","J=YES, F=NO","zbpw4hbyd4","1","71","57","85","","","","","","lextale","true","false","","","","","","","",""
"1400","
  <p style=""font-size: 40px;"">flimsy</p>
  <p style=""font-size: 16px;"">J = YES &nbsp;&nbsp;&nbsp; F = NO</p>
","f","html-keyboard-response","15","2.1.0","61260","J=YES, F=NO","zbpw4hbyd4","1","71","57","85","","","","","","lextale","true","false","","","","","","","",""
"1114","
  <p style=""font-size: 40px;"">drain</p>
  <p style=""font-size: 16px;"">J = YES &nbsp;&nbsp;&nbsp; F = NO</p>
","j","html-keyboard-response","16","2.1.0","62376","J=YES, F=NO","zbpw4hbyd4","1","71","57","85","","","","","","lextale","true","false","","","","","","","",""
"1573","
  <p style=""font-size: 40px;"">twindle</p>
  <p style=""font-size: 16px;"">J = YES &nbsp;&nbsp;&nbsp; F = NO</p>
","j","html-keyboard-response","17","2.1.0","63951","J=YES, F=NO","zbpw4hbyd4","1","71","57","85","","","","","","lextale","false","false","","","","","","","",""
"929","
  <p style=""font-size: 40px;"">propose</p>
  <p style=""font-size: 16px;"">J = YES &nbsp;&nbsp;&nbsp; F = NO</p>
","j","html-keyboard-response","18","2.1.0","64882","J=YES, F=NO","zbpw4hbyd4","1","71","57","85","","","","","","lextale","true","false","","","","","","","",""
"1724","
  <p style=""font-size: 40px;"">forlay</p>
  <p style=""font-size: 16px;"">J = YES &nbsp;&nbsp;&nbsp; F = NO</p>
","f","html-keyboard-response","19","2.1.0","66609","J=YES, F=NO","zbpw4hbyd4","1","71","57","85","","","","","","lextale","false","false","","","","","","","",""
"1331","
  <p style=""font-size: 40px;"">tenant</p>
  <p style=""font-size: 16px;"">J = YES &nbsp;&nbsp;&nbsp; F = NO</p>
","j","html-keyboard-response","20","2.1.0","67943","J=YES, F=NO","zbpw4hbyd4","1","71","57","85","","","","","","lextale","true","false","","","","","","","",""
"1271","
  <p style=""font-size: 40px;"">strain</p>
  <p style=""font-size: 16px;"">J = YES &nbsp;&nbsp;&nbsp; F = NO</p>
","j","html-keyboard-response","21","2.1.0","69217","J=YES, F=NO","zbpw4hbyd4","1","71","57","85","","","","","","lextale","true","false","","","","","","","",""
"2942","
  <p style=""font-size: 40px;"">holster</p>
  <p style=""font-size: 16px;"">J = YES &nbsp;&nbsp;&nbsp; F = NO</p>
","f","html-keyboard-response","22","2.1.0","72162","J=YES, F=NO","zbpw4hbyd4","1","71","57","85","","","","","","lextale","true","false","","","","","","","",""
"1213","
  <p style=""font-size: 40px;"">hinder</p>
  <p style=""font-size: 16px;"">J = YES &nbsp;&nbsp;&nbsp; F = NO</p>
","f","html-keyboard-response","23","2.1.0","73377","J=YES, F=NO","zbpw4hbyd4","1","71","57","85","","","","","","lextale","true","false","","","","","","","",""
"3357","
  <p style=""font-size: 40px;"">swindle</p>
  <p style=""font-size: 16px;"">J = YES &nbsp;&nbsp;&nbsp; F = NO</p>
","j","html-keyboard-response","24","2.1.0","76736","J=YES, F=NO","zbpw4hbyd4","1","71","57","85","","","","","","lextale","true","false","","","","","","","",""
"2392","
  <p style=""font-size: 40px;"">nuder</p>
  <p style=""font-size: 16px;"">J = YES &nbsp;&nbsp;&nbsp; F = NO</p>
","f","html-keyboard-response","25","2.1.0","79131","J=YES, F=NO","zbpw4hbyd4","1","71","57","85","","","","","","lextale","false","false","","","","","","","",""
"999","
  <p style=""font-size: 40px;"">pillow</p>
  <p style=""font-size: 16px;"">J = YES &nbsp;&nbsp;&nbsp; F = NO</p>
","j","html-keyboard-response","26","2.1.0","80132","J=YES, F=NO","zbpw4hbyd4","1","71","57","85","","","","","","lextale","true","false","","","","","","","",""
"2254","
  <p style=""font-size: 40px;"">shumble</p>
  <p style=""font-size: 16px;"">J = YES &nbsp;&nbsp;&nbsp; F = NO</p>
","f","html-keyboard-response","27","2.1.0","82389","J=YES, F=NO","zbpw4hbyd4","1","71","57","85","","","","","","lextale","false","false","","","","","","","",""
"1422","
  <p style=""font-size: 40px;"">thirst</p>
  <p style=""font-size: 16px;"">J = YES &nbsp;&nbsp;&nbsp; F = NO</p>
","j","html-keyboard-response","28","2.1.0","83814","J=YES, F=NO","zbpw4hbyd4","1","71","57","85","","","","","","lextale","true","false","","","","","","","",""
"1781","
  <p style=""font-size: 40px;"">unsail</p>
  <p style=""font-size: 16px;"">J = YES &nbsp;&nbsp;&nbsp; F = NO</p>
","f","html-keyboard-response","29","2.1.0","85597","J=YES, F=NO","zbpw4hbyd4","1","71","57","85","","","","","","lextale","false","false","","","","","","","",""
"1310","
  <p style=""font-size: 40px;"">rifle</p>
  <p style=""font-size: 16px;"">J = YES &nbsp;&nbsp;&nbsp; F = NO</p>
","j","html-keyboard-response","30","2.1.0","86909","J=YES, F=NO","zbpw4hbyd4","1","71","57","85","","","","","","lextale","true","false","","","","","","","",""
"1799","
  <p style=""font-size: 40px;"">mush</p>
  <p style=""font-size: 16px;"">J = YES &nbsp;&nbsp;&nbsp; F = NO</p>
","f","html-keyboard-response","31","2.1.0","88710","J=YES, F=NO","zbpw4hbyd4","1","71","57","85","","","","","","lextale","false","false","","","","","","","",""
"1825","
  <p style=""font-size: 40px;"">drench</p>
  <p style=""font-size: 16px;"">J = YES &nbsp;&nbsp;&nbsp; F = NO</p>
","f","html-keyboard-response","32","2.1.0","90538","J=YES, F=NO","zbpw4hbyd4","1","71","57","85","","","","","","lextale","true","false","","","","","","","",""
"1598","
  <p style=""font-size: 40px;"">snirt</p>
  <p style=""font-size: 16px;"">J = YES &nbsp;&nbsp;&nbsp; F = NO</p>
","f","html-keyboard-response","33","2.1.0","92139","J=YES, F=NO","zbpw4hbyd4","1","71","57","85","","","","","","lextale","false","false","","","","","","","",""
"1812","
  <p style=""font-size: 40px;"">bitter</p>
  <p style=""font-size: 16px;"">J = YES &nbsp;&nbsp;&nbsp; F = NO</p>
","j","html-keyboard-response","34","2.1.0","93953","J=YES, F=NO","zbpw4hbyd4","1","71","57","85","","","","","","lextale","true","false","","","","","","","",""
"1757","
  <p style=""font-size: 40px;"">pliff</p>
  <p style=""font-size: 16px;"">J = YES &nbsp;&nbsp;&nbsp; F = NO</p>
","f","html-keyboard-response","35","2.1.0","95713","J=YES, F=NO","zbpw4hbyd4","1","71","57","85","","","","","","lextale","false","false","","","","","","","",""
"951","
  <p style=""font-size: 40px;"">tablet</p>
  <p style=""font-size: 16px;"">J = YES &nbsp;&nbsp;&nbsp; F = NO</p>
","j","html-keyboard-response","36","2.1.0","96667","J=YES, F=NO","zbpw4hbyd4","1","71","57","85","","","","","","lextale","true","false","","","","","","","",""
"3546","
  <p style=""font-size: 40px;"">glimmer</p>
  <p style=""font-size: 16px;"">J = YES &nbsp;&nbsp;&nbsp; F = NO</p>
","j","html-keyboard-response","37","2.1.0","100216","J=YES, F=NO","zbpw4hbyd4","1","71","57","85","","","","","","lextale","true","false","","","","","","","",""
"1559","
  <p style=""font-size: 40px;"">slink</p>
  <p style=""font-size: 16px;"">J = YES &nbsp;&nbsp;&nbsp; F = NO</p>
","f","html-keyboard-response","38","2.1.0","101777","J=YES, F=NO","zbpw4hbyd4","1","71","57","85","","","","","","lextale","true","false","","","","","","","",""
"830","
  <p style=""font-size: 40px;"">clever</p>
  <p style=""font-size: 16px;"">J = YES &nbsp;&nbsp;&nbsp; F = NO</p>
","j","html-keyboard-response","39","2.1.0","102609","J=YES, F=NO","zbpw4hbyd4","1","71","57","85","","","","","","lextale","true","false","","","","","","","",""
"2263","
  <p style=""font-size: 40px;"">grum</p>
  <p style=""font-size: 16px;"">J = YES &nbsp;&nbsp;&nbsp; F = NO</p>
","j","html-keyboard-response","40","2.1.0","104874","J=YES, F=NO","zbpw4hbyd4","1","71","57","85","","","","","","lextale","false","false","","","","","","","",""
"1383","
  <p style=""font-size: 40px;"">string</p>
  <p style=""font-size: 16px;"">J = YES &nbsp;&nbsp;&nbsp; F = NO</p>
","j","html-keyboard-response","41","2.1.0","106260","J=YES, F=NO","zbpw4hbyd4","1","71","57","85","","","","","","lextale","true","false","","","","","","","",""
"1511","
  <p style=""font-size: 40px;"">plim</p>
  <p style=""font-size: 16px;"">J = YES &nbsp;&nbsp;&nbsp; F = NO</p>
","f","html-keyboard-response","42","2.1.0","107774","J=YES, F=NO","zbpw4hbyd4","1","71","57","85","","","","","","lextale","false","false","","","","","","","",""
"1288","
  <p style=""font-size: 40px;"">cable</p>
  <p style=""font-size: 16px;"">J = YES &nbsp;&nbsp;&nbsp; F = NO</p>
","j","html-keyboard-response","43","2.1.0","109065","J=YES, F=NO","zbpw4hbyd4","1","71","57","85","","","","","","lextale","true","false","","","","","","","",""
"2221","
  <p style=""font-size: 40px;"">shrivel</p>
  <p style=""font-size: 16px;"">J = YES &nbsp;&nbsp;&nbsp; F = NO</p>
","f","html-keyboard-response","44","2.1.0","111288","J=YES, F=NO","zbpw4hbyd4","1","71","57","85","","","","","","lextale","true","false","","","","","","","",""
"1504","
  <p style=""font-size: 40px;"">tarnish</p>
  <p style=""font-size: 16px;"">J = YES &nbsp;&nbsp;&nbsp; F = NO</p>
","j","html-keyboard-response","45","2.1.0","112794","J=YES, F=NO","zbpw4hbyd4","1","71","57","85","","","","","","lextale","true","false","","","","","","","",""
"1580","
  <p style=""font-size: 40px;"">blim</p>
  <p style=""font-size: 16px;"">J = YES &nbsp;&nbsp;&nbsp; F = NO</p>
","f","html-keyboard-response","46","2.1.0","114376","J=YES, F=NO","zbpw4hbyd4","1","71","57","85","","","","","","lextale","false","false","","","","","","","",""
"1072","
  <p style=""font-size: 40px;"">stifle</p>
  <p style=""font-size: 16px;"">J = YES &nbsp;&nbsp;&nbsp; F = NO</p>
","f","html-keyboard-response","47","2.1.0","115451","J=YES, F=NO","zbpw4hbyd4","1","71","57","85","","","","","","lextale","true","false","","","","","","","",""
"1237","
  <p style=""font-size: 40px;"">bint</p>
  <p style=""font-size: 16px;"">J = YES &nbsp;&nbsp;&nbsp; F = NO</p>
","f","html-keyboard-response","48","2.1.0","116690","J=YES, F=NO","zbpw4hbyd4","1","71","57","85","","","","","","lextale","false","false","","","","","","","",""
"1084","
  <p style=""font-size: 40px;"">purple</p>
  <p style=""font-size: 16px;"">J = YES &nbsp;&nbsp;&nbsp; F = NO</p>
","j","html-keyboard-response","49","2.1.0","117777","J=YES, F=NO","zbpw4hbyd4","1","71","57","85","","","","","","lextale","true","false","","","","","","","",""
"1662","
  <p style=""font-size: 40px;"">wriggle</p>
  <p style=""font-size: 16px;"">J = YES &nbsp;&nbsp;&nbsp; F = NO</p>
","f","html-keyboard-response","50","2.1.0","119440","J=YES, F=NO","zbpw4hbyd4","1","71","57","85","","","","","","lextale","true","false","","","","","","","",""
"1279","
  <p style=""font-size: 40px;"">mangle</p>
  <p style=""font-size: 16px;"">J = YES &nbsp;&nbsp;&nbsp; F = NO</p>
","f","html-keyboard-response","51","2.1.0","120721","J=YES, F=NO","zbpw4hbyd4","1","71","57","85","","","","","","lextale","true","false","","","","","","","",""
"3508","
  <p style=""font-size: 40px;"">shramp</p>
  <p style=""font-size: 16px;"">J = YES &nbsp;&nbsp;&nbsp; F = NO</p>
","f","html-keyboard-response","52","2.1.0","124232","J=YES, F=NO","zbpw4hbyd4","1","71","57","85","","","","","","lextale","false","false","","","","","","","",""
"4407","
  <p style=""font-size: 40px;"">flirt</p>
  <p style=""font-size: 16px;"">J = YES &nbsp;&nbsp;&nbsp; F = NO</p>
","j","html-keyboard-response","53","2.1.0","128641","J=YES, F=NO","zbpw4hbyd4","1","71","57","85","","","","","","lextale","true","false","","","","","","","",""
"1826","
  <p style=""font-size: 40px;"">frip</p>
  <p style=""font-size: 16px;"">J = YES &nbsp;&nbsp;&nbsp; F = NO</p>
","f","html-keyboard-response","54","2.1.0","130470","J=YES, F=NO","zbpw4hbyd4","1","71","57","85","","","","","","lextale","false","false","","","","","","","",""
"2856","
  <p style=""font-size: 40px;"">tangle</p>
  <p style=""font-size: 16px;"">J = YES &nbsp;&nbsp;&nbsp; F = NO</p>
","f","html-keyboard-response","55","2.1.0","133329","J=YES, F=NO","zbpw4hbyd4","1","71","57","85","","","","","","lextale","true","false","","","","","","","",""
"1324","
  <p style=""font-size: 40px;"">crumble</p>
  <p style=""font-size: 16px;"">J = YES &nbsp;&nbsp;&nbsp; F = NO</p>
","j","html-keyboard-response","56","2.1.0","134656","J=YES, F=NO","zbpw4hbyd4","1","71","57","85","","","","","","lextale","true","false","","","","","","","",""
"992","
  <p style=""font-size: 40px;"">wrinkle</p>
  <p style=""font-size: 16px;"">J = YES &nbsp;&nbsp;&nbsp; F = NO</p>
","f","html-keyboard-response","57","2.1.0","135650","J=YES, F=NO","zbpw4hbyd4","1","71","57","85","","","","","","lextale","true","false","","","","","","","",""
"946","
  <p style=""font-size: 40px;"">slumb</p>
  <p style=""font-size: 16px;"">J = YES &nbsp;&nbsp;&nbsp; F = NO</p>
","f","html-keyboard-response","58","2.1.0","136598","J=YES, F=NO","zbpw4hbyd4","1","71","57","85","","","","","","lextale","false","false","","","","","","","",""
"1558","
  <p style=""font-size: 40px;"">jungle</p>
  <p style=""font-size: 16px;"">J = YES &nbsp;&nbsp;&nbsp; F = NO</p>
","j","html-keyboard-response","59","2.1.0","138157","J=YES, F=NO","zbpw4hbyd4","1","71","57","85","","","","","","lextale","true","false","","","","","","","",""
"1630","
  <p style=""font-size: 40px;"">frolick</p>
  <p style=""font-size: 16px;"">J = YES &nbsp;&nbsp;&nbsp; F = NO</p>
","f","html-keyboard-response","60","2.1.0","139789","J=YES, F=NO","zbpw4hbyd4","1","71","57","85","","","","","","lextale","false","false","","","","","","","",""
"1735","
      <h2>LexTALE Test Completed</h2>
      <p>Your LexTALE vocabulary score is: <strong>71%</strong></p>
      <p>Press any key to continue.</p>
    "," ","html-keyboard-response","61","2.1.0","141528","J=YES, F=NO","zbpw4hbyd4","1","71","57","85","","","","","","","","","","","","","","","",""
"3036","
    <div style=""max-width: 800px; margin: auto; text-align: left;"">
      <h2>Break Time</h2>
      <p>You have completed the first part of the study.</p>
      <p>You may take a short <strong>30-second break</strong> before continuing.</p>
      <p>When you’re ready, press any key to continue to the final task.</p>
    </div>
  "," ","html-keyboard-response","62","2.1.0","144566","J=YES, F=NO","zbpw4hbyd4","1","71","57","85","","","","","","","","","","","","","","","",""
"12173","
    <div style=""max-width: 800px; margin: auto; text-align: left;"">
      <h2>Part 2: Lexical Decision Task</h2>
      <p>You will now begin the second part of the study.</p>
      <p>Each trial will follow this sequence:</p>
      <ul>
        <li>A fixation cross (+) appears at the center of the screen.</li>
        <li>You will hear a short beep followed by a spoken word.</li>
        <li>A written word will appear briefly on the screen.</li>
      </ul>
      <p>Your task is to judge whether the <strong>written word</strong> is a real English word.</p>
      <p style=""margin-top: 1em;""><strong>Key responses:</strong></p>
      <ul>
        <li><strong>J</strong> = YES (real English word)</li>
        <li><strong>F</strong> = NO (not a real English word)</li>
      </ul>
      <p>Please respond as quickly and accurately as you can.</p>
      <p style=""margin-top: 2em;"">Press any key to continue.</p>
    </div>
  "," ","html-keyboard-response","63","2.1.0","156741","J=YES, F=NO","zbpw4hbyd4","1","71","57","85","","","","","","","","","","","","","","","",""
"6549","
    <div style=""max-width: 800px; margin: auto; text-align: left;"">
      <h2>Before You Begin</h2>
      <p>Make sure your sound is turned on.</p>
      <p>You will hear audio during each trial, but your decision should be based only on the <strong>written word</strong> you see on the screen.</p>
      <p><strong>Reminder:</strong></p>
      <ul>
        <li><strong>J</strong> = YES (real English word)</li>
        <li><strong>F</strong> = NO (not a real English word)</li>
      </ul>
      <p style=""margin-top: 2em;"">Press any key when you are ready to begin.</p>
    </div>
  "," ","html-keyboard-response","64","2.1.0","163292","J=YES, F=NO","zbpw4hbyd4","1","71","57","85","","","","","","","","","","","","","","","",""
"5214","
    <div style=""max-width: 800px; margin: auto; text-align: left;"">
      <h2>Part 2: Practice Trials</h2>
      <p>You will now complete a few <strong>practice trials</strong> to get familiar with the task.</p>
      <p>These trials are <strong>not scored</strong> and are only to help you get used to the format.</p>
      <p style=""margin-top: 2em;"">Press any key to begin.</p>
    </div>
  "," ","html-keyboard-response","65","2.1.0","168509","J=YES, F=NO","zbpw4hbyd4","1","71","57","85","","","","","","","","","","","","","","","",""
"2474","<p>Starting practice block 1 of 2. Press any key to continue.</p>"," ","html-keyboard-response","66","2.1.0","170985","J=YES, F=NO","zbpw4hbyd4","1","71","57","85","","","","","","","","","","","","","","","",""
"null","<p style=""font-size: 50px;"">+</p>","null","html-keyboard-response","67","2.1.0","171288","J=YES, F=NO","zbpw4hbyd4","1","71","57","85","","","","","","","","","","","","","","","",""
"null","audio/beep-329314.mp3","null","audio-keyboard-response","68","2.1.0","173248","J=YES, F=NO","zbpw4hbyd4","1","71","57","85","","","","","","","","","","","","","","","",""
"null","audio/belief.wav","null","audio-keyboard-response","69","2.1.0","174357","J=YES, F=NO","zbpw4hbyd4","1","71","57","85","","","","","","","","","","","","","","","",""
"null","
          <p id=""word"" style=""font-size: 40px;"">read</p>
          <p style=""font-size: 16px;"">J = YES &nbsp;&nbsp;&nbsp; F = NO</p>
        ","null","html-keyboard-response","70","2.1.0","175860","J=YES, F=NO","zbpw4hbyd4","1","71","57","85","","","","","","","","","read","belief","filler","filler","j","false","",""
"null","<p style=""font-size: 50px;"">+</p>","null","html-keyboard-response","71","2.1.0","176163","J=YES, F=NO","zbpw4hbyd4","1","71","57","85","","","","","","","","","","","","","","","",""
"null","audio/beep-329314.mp3","null","audio-keyboard-response","72","2.1.0","178077","J=YES, F=NO","zbpw4hbyd4","1","71","57","85","","","","","","","","","","","","","","","",""
"null","audio/winter.wav","null","audio-keyboard-response","73","2.1.0","178909","J=YES, F=NO","zbpw4hbyd4","1","71","57","85","","","","","","","","","","","","","","","",""
"413","
          <p id=""word"" style=""font-size: 40px;"">straven</p>
          <p style=""font-size: 16px;"">J = YES &nbsp;&nbsp;&nbsp; F = NO</p>
        ","j","html-keyboard-response","74","2.1.0","179323","J=YES, F=NO","zbpw4hbyd4","1","71","57","85","","","","","","","","","straven","winter","pseudoword","pseudoword","f","false","",""
"null","<p style=""font-size: 50px;"">+</p>","null","html-keyboard-response","75","2.1.0","179626","J=YES, F=NO","zbpw4hbyd4","1","71","57","85","","","","","","","","","","","","","","","",""
"null","audio/beep-329314.mp3","null","audio-keyboard-response","76","2.1.0","181607","J=YES, F=NO","zbpw4hbyd4","1","71","57","85","","","","","","","","","","","","","","","",""
"null","audio/kettle1.wav","null","audio-keyboard-response","77","2.1.0","182533","J=YES, F=NO","zbpw4hbyd4","1","71","57","85","","","","","","","","","","","","","","","",""
"791","
          <p id=""word"" style=""font-size: 40px;"">wrap</p>
          <p style=""font-size: 16px;"">J = YES &nbsp;&nbsp;&nbsp; F = NO</p>
        ","f","html-keyboard-response","78","2.1.0","183326","J=YES, F=NO","zbpw4hbyd4","1","71","57","85","","","","","","","","","wrap","kettle1","filler","filler","j","false","",""
"null","<p style=""font-size: 50px;"">+</p>","null","html-keyboard-response","79","2.1.0","183629","J=YES, F=NO","zbpw4hbyd4","1","71","57","85","","","","","","","","","","","","","","","",""
"null","audio/beep-329314.mp3","null","audio-keyboard-response","80","2.1.0","185601","J=YES, F=NO","zbpw4hbyd4","1","71","57","85","","","","","","","","","","","","","","","",""
"null","audio/relief.wav","null","audio-keyboard-response","81","2.1.0","186712","J=YES, F=NO","zbpw4hbyd4","1","71","57","85","","","","","","","","","","","","","","","",""
"808","
          <p id=""word"" style=""font-size: 40px;"">grigg</p>
          <p style=""font-size: 16px;"">J = YES &nbsp;&nbsp;&nbsp; F = NO</p>
        ","f","html-keyboard-response","82","2.1.0","187521","J=YES, F=NO","zbpw4hbyd4","1","71","57","85","","","","","","","","","grigg","relief","pseudoword","pseudoword","f","true","",""
"null","<p style=""font-size: 50px;"">+</p>","null","html-keyboard-response","83","2.1.0","187824","J=YES, F=NO","zbpw4hbyd4","1","71","57","85","","","","","","","","","","","","","","","",""
"null","audio/beep-329314.mp3","null","audio-keyboard-response","84","2.1.0","189875","J=YES, F=NO","zbpw4hbyd4","1","71","57","85","","","","","","","","","","","","","","","",""
"null","audio/bottle.wav","null","audio-keyboard-response","85","2.1.0","190615","J=YES, F=NO","zbpw4hbyd4","1","71","57","85","","","","","","","","","","","","","","","",""
"1381","
          <p id=""word"" style=""font-size: 40px;"">watch</p>
          <p style=""font-size: 16px;"">J = YES &nbsp;&nbsp;&nbsp; F = NO</p>
        ","j","html-keyboard-response","86","2.1.0","191997","J=YES, F=NO","zbpw4hbyd4","1","71","57","85","","","","","","","","","watch","bottle","filler","filler","j","true","",""
"null","<p style=""font-size: 50px;"">+</p>","null","html-keyboard-response","87","2.1.0","192300","J=YES, F=NO","zbpw4hbyd4","1","71","57","85","","","","","","","","","","","","","","","",""
"null","audio/beep-329314.mp3","null","audio-keyboard-response","88","2.1.0","194237","J=YES, F=NO","zbpw4hbyd4","1","71","57","85","","","","","","","","","","","","","","","",""
"null","audio/pattern.wav","null","audio-keyboard-response","89","2.1.0","195257","J=YES, F=NO","zbpw4hbyd4","1","71","57","85","","","","","","","","","","","","","","","",""
"1223","
          <p id=""word"" style=""font-size: 40px;"">tug</p>
          <p style=""font-size: 16px;"">J = YES &nbsp;&nbsp;&nbsp; F = NO</p>
        ","f","html-keyboard-response","90","2.1.0","196482","J=YES, F=NO","zbpw4hbyd4","1","71","57","85","","","","","","","","","tug","pattern","filler","filler","j","false","",""
"null","<p style=""font-size: 50px;"">+</p>","null","html-keyboard-response","91","2.1.0","196785","J=YES, F=NO","zbpw4hbyd4","1","71","57","85","","","","","","","","","","","","","","","",""
"null","audio/beep-329314.mp3","null","audio-keyboard-response","92","2.1.0","198697","J=YES, F=NO","zbpw4hbyd4","1","71","57","85","","","","","","","","","","","","","","","",""
"null","audio/ankle1.wav","null","audio-keyboard-response","93","2.1.0","199530","J=YES, F=NO","zbpw4hbyd4","1","71","57","85","","","","","","","","","","","","","","","",""
"null","
          <p id=""word"" style=""font-size: 40px;"">kick</p>
          <p style=""font-size: 16px;"">J = YES &nbsp;&nbsp;&nbsp; F = NO</p>
        ","null","html-keyboard-response","94","2.1.0","201032","J=YES, F=NO","zbpw4hbyd4","1","71","57","85","","","","","","","","","kick","ankle1","filler","filler","j","false","",""
"null","<p style=""font-size: 50px;"">+</p>","null","html-keyboard-response","95","2.1.0","201336","J=YES, F=NO","zbpw4hbyd4","1","71","57","85","","","","","","","","","","","","","","","",""
"null","audio/beep-329314.mp3","null","audio-keyboard-response","96","2.1.0","203251","J=YES, F=NO","zbpw4hbyd4","1","71","57","85","","","","","","","","","","","","","","","",""
"null","audio/breath.wav","null","audio-keyboard-response","97","2.1.0","204080","J=YES, F=NO","zbpw4hbyd4","1","71","57","85","","","","","","","","","","","","","","","",""
"1080","
          <p id=""word"" style=""font-size: 40px;"">pack</p>
          <p style=""font-size: 16px;"">J = YES &nbsp;&nbsp;&nbsp; F = NO</p>
        ","j","html-keyboard-response","98","2.1.0","205161","J=YES, F=NO","zbpw4hbyd4","1","71","57","85","","","","","","","","","pack","breath","filler","filler","j","true","",""
"null","<p style=""font-size: 50px;"">+</p>","null","html-keyboard-response","99","2.1.0","205464","J=YES, F=NO","zbpw4hbyd4","1","71","57","85","","","","","","","","","","","","","","","",""
"null","audio/beep-329314.mp3","null","audio-keyboard-response","100","2.1.0","207430","J=YES, F=NO","zbpw4hbyd4","1","71","57","85","","","","","","","","","","","","","","","",""
"null","audio/age1.wav","null","audio-keyboard-response","101","2.1.0","208260","J=YES, F=NO","zbpw4hbyd4","1","71","57","85","","","","","","","","","","","","","","","",""
"1090","
          <p id=""word"" style=""font-size: 40px;"">lachry</p>
          <p style=""font-size: 16px;"">J = YES &nbsp;&nbsp;&nbsp; F = NO</p>
        ","f","html-keyboard-response","102","2.1.0","209351","J=YES, F=NO","zbpw4hbyd4","1","71","57","85","","","","","","","","","lachry","age1","pseudoword","pseudoword","f","true","",""
"null","<p style=""font-size: 50px;"">+</p>","null","html-keyboard-response","103","2.1.0","209654","J=YES, F=NO","zbpw4hbyd4","1","71","57","85","","","","","","","","","","","","","","","",""
"null","audio/beep-329314.mp3","null","audio-keyboard-response","104","2.1.0","211609","J=YES, F=NO","zbpw4hbyd4","1","71","57","85","","","","","","","","","","","","","","","",""
"null","audio/bishop1.wav","null","audio-keyboard-response","105","2.1.0","212534","J=YES, F=NO","zbpw4hbyd4","1","71","57","85","","","","","","","","","","","","","","","",""
"973","
          <p id=""word"" style=""font-size: 40px;"">play</p>
          <p style=""font-size: 16px;"">J = YES &nbsp;&nbsp;&nbsp; F = NO</p>
        ","j","html-keyboard-response","106","2.1.0","213508","J=YES, F=NO","zbpw4hbyd4","1","71","57","85","","","","","","","","","play","bishop1","filler","filler","j","true","",""
"null","<p style=""font-size: 50px;"">+</p>","null","html-keyboard-response","107","2.1.0","213812","J=YES, F=NO","zbpw4hbyd4","1","71","57","85","","","","","","","","","","","","","","","",""
"null","audio/beep-329314.mp3","null","audio-keyboard-response","108","2.1.0","215790","J=YES, F=NO","zbpw4hbyd4","1","71","57","85","","","","","","","","","","","","","","","",""
"null","audio/plot1.wav","null","audio-keyboard-response","109","2.1.0","216804","J=YES, F=NO","zbpw4hbyd4","1","71","57","85","","","","","","","","","","","","","","","",""
"813","
          <p id=""word"" style=""font-size: 40px;"">glenter</p>
          <p style=""font-size: 16px;"">J = YES &nbsp;&nbsp;&nbsp; F = NO</p>
        ","f","html-keyboard-response","110","2.1.0","217618","J=YES, F=NO","zbpw4hbyd4","1","71","57","85","","","","","","","","","glenter","plot1","pseudoword","pseudoword","f","true","",""
"null","<p style=""font-size: 50px;"">+</p>","null","html-keyboard-response","111","2.1.0","217921","J=YES, F=NO","zbpw4hbyd4","1","71","57","85","","","","","","","","","","","","","","","",""
"null","audio/beep-329314.mp3","null","audio-keyboard-response","112","2.1.0","219965","J=YES, F=NO","zbpw4hbyd4","1","71","57","85","","","","","","","","","","","","","","","",""
"null","audio/cash1.wav","null","audio-keyboard-response","113","2.1.0","220796","J=YES, F=NO","zbpw4hbyd4","1","71","57","85","","","","","","","","","","","","","","","",""
"null","
          <p id=""word"" style=""font-size: 40px;"">splear</p>
          <p style=""font-size: 16px;"">J = YES &nbsp;&nbsp;&nbsp; F = NO</p>
        ","null","html-keyboard-response","114","2.1.0","222298","J=YES, F=NO","zbpw4hbyd4","1","71","57","85","","","","","","","","","splear","cash1","pseudoword","pseudoword","f","false","",""
"198","<p>Starting practice block 2 of 2. Press any key to continue.</p>","f","html-keyboard-response","115","2.1.0","222499","J=YES, F=NO","zbpw4hbyd4","1","71","57","85","","","","","","","","","","","","","","","",""
"null","<p style=""font-size: 50px;"">+</p>","null","html-keyboard-response","116","2.1.0","222803","J=YES, F=NO","zbpw4hbyd4","1","71","57","85","","","","","","","","","","","","","","","",""
"null","audio/beep-329314.mp3","null","audio-keyboard-response","117","2.1.0","224798","J=YES, F=NO","zbpw4hbyd4","1","71","57","85","","","","","","","","","","","","","","","",""
"null","audio/tax1.wav","null","audio-keyboard-response","118","2.1.0","226001","J=YES, F=NO","zbpw4hbyd4","1","71","57","85","","","","","","","","","","","","","","","",""
"null","
          <p id=""word"" style=""font-size: 40px;"">snate</p>
          <p style=""font-size: 16px;"">J = YES &nbsp;&nbsp;&nbsp; F = NO</p>
        ","null","html-keyboard-response","119","2.1.0","227503","J=YES, F=NO","zbpw4hbyd4","1","71","57","85","","","","","","","","","snate","tax1","pseudoword","pseudoword","f","false","",""
"null","<p style=""font-size: 50px;"">+</p>","null","html-keyboard-response","120","2.1.0","227806","J=YES, F=NO","zbpw4hbyd4","1","71","57","85","","","","","","","","","","","","","","","",""
"null","audio/beep-329314.mp3","null","audio-keyboard-response","121","2.1.0","229719","J=YES, F=NO","zbpw4hbyd4","1","71","57","85","","","","","","","","","","","","","","","",""
"null","audio/arm.wav","null","audio-keyboard-response","122","2.1.0","230549","J=YES, F=NO","zbpw4hbyd4","1","71","57","85","","","","","","","","","","","","","","","",""
"1066","
          <p id=""word"" style=""font-size: 40px;"">pigne</p>
          <p style=""font-size: 16px;"">J = YES &nbsp;&nbsp;&nbsp; F = NO</p>
        ","f","html-keyboard-response","123","2.1.0","231617","J=YES, F=NO","zbpw4hbyd4","1","71","57","85","","","","","","","","","pigne","arm","pseudoword","pseudoword","f","true","",""
"null","<p style=""font-size: 50px;"">+</p>","null","html-keyboard-response","124","2.1.0","231921","J=YES, F=NO","zbpw4hbyd4","1","71","57","85","","","","","","","","","","","","","","","",""
"null","audio/beep-329314.mp3","null","audio-keyboard-response","125","2.1.0","233900","J=YES, F=NO","zbpw4hbyd4","1","71","57","85","","","","","","","","","","","","","","","",""
"null","audio/weight1.wav","null","audio-keyboard-response","126","2.1.0","234917","J=YES, F=NO","zbpw4hbyd4","1","71","57","85","","","","","","","","","","","","","","","",""
"1125","
          <p id=""word"" style=""font-size: 40px;"">crimsh</p>
          <p style=""font-size: 16px;"">J = YES &nbsp;&nbsp;&nbsp; F = NO</p>
        ","f","html-keyboard-response","127","2.1.0","236043","J=YES, F=NO","zbpw4hbyd4","1","71","57","85","","","","","","","","","crimsh","weight1","pseudoword","pseudoword","f","true","",""
"null","<p style=""font-size: 50px;"">+</p>","null","html-keyboard-response","128","2.1.0","236346","J=YES, F=NO","zbpw4hbyd4","1","71","57","85","","","","","","","","","","","","","","","",""
"null","audio/beep-329314.mp3","null","audio-keyboard-response","129","2.1.0","238264","J=YES, F=NO","zbpw4hbyd4","1","71","57","85","","","","","","","","","","","","","","","",""
"null","audio/van1.wav","null","audio-keyboard-response","130","2.1.0","239096","J=YES, F=NO","zbpw4hbyd4","1","71","57","85","","","","","","","","","","","","","","","",""
"1021","
          <p id=""word"" style=""font-size: 40px;"">push</p>
          <p style=""font-size: 16px;"">J = YES &nbsp;&nbsp;&nbsp; F = NO</p>
        ","j","html-keyboard-response","131","2.1.0","240119","J=YES, F=NO","zbpw4hbyd4","1","71","57","85","","","","","","","","","push","van1","filler","filler","j","true","",""
"null","<p style=""font-size: 50px;"">+</p>","null","html-keyboard-response","132","2.1.0","240422","J=YES, F=NO","zbpw4hbyd4","1","71","57","85","","","","","","","","","","","","","","","",""
"null","audio/beep-329314.mp3","null","audio-keyboard-response","133","2.1.0","242443","J=YES, F=NO","zbpw4hbyd4","1","71","57","85","","","","","","","","","","","","","","","",""
"null","audio/mouth1.wav","null","audio-keyboard-response","134","2.1.0","243460","J=YES, F=NO","zbpw4hbyd4","1","71","57","85","","","","","","","","","","","","","","","",""
"null","
          <p id=""word"" style=""font-size: 40px;"">spolial</p>
          <p style=""font-size: 16px;"">J = YES &nbsp;&nbsp;&nbsp; F = NO</p>
        ","null","html-keyboard-response","135","2.1.0","244962","J=YES, F=NO","zbpw4hbyd4","1","71","57","85","","","","","","","","","spolial","mouth1","pseudoword","pseudoword","f","false","",""
"null","<p style=""font-size: 50px;"">+</p>","null","html-keyboard-response","136","2.1.0","245266","J=YES, F=NO","zbpw4hbyd4","1","71","57","85","","","","","","","","","","","","","","","",""
"null","audio/beep-329314.mp3","null","audio-keyboard-response","137","2.1.0","247182","J=YES, F=NO","zbpw4hbyd4","1","71","57","85","","","","","","","","","","","","","","","",""
"null","audio/butter1.wav","null","audio-keyboard-response","138","2.1.0","247920","J=YES, F=NO","zbpw4hbyd4","1","71","57","85","","","","","","","","","","","","","","","",""
"670","
          <p id=""word"" style=""font-size: 40px;"">chew</p>
          <p style=""font-size: 16px;"">J = YES &nbsp;&nbsp;&nbsp; F = NO</p>
        ","f","html-keyboard-response","139","2.1.0","248590","J=YES, F=NO","zbpw4hbyd4","1","71","57","85","","","","","","","","","chew","butter1","filler","filler","j","false","",""
"null","<p style=""font-size: 50px;"">+</p>","null","html-keyboard-response","140","2.1.0","248893","J=YES, F=NO","zbpw4hbyd4","1","71","57","85","","","","","","","","","","","","","","","",""
"null","audio/beep-329314.mp3","null","audio-keyboard-response","141","2.1.0","250895","J=YES, F=NO","zbpw4hbyd4","1","71","57","85","","","","","","","","","","","","","","","",""
"null","audio/gossip1.wav","null","audio-keyboard-response","142","2.1.0","251992","J=YES, F=NO","zbpw4hbyd4","1","71","57","85","","","","","","","","","","","","","","","",""
"760","
          <p id=""word"" style=""font-size: 40px;"">camerish</p>
          <p style=""font-size: 16px;"">J = YES &nbsp;&nbsp;&nbsp; F = NO</p>
        ","f","html-keyboard-response","143","2.1.0","252754","J=YES, F=NO","zbpw4hbyd4","1","71","57","85","","","","","","","","","camerish","gossip1","pseudoword","pseudoword","f","true","",""
"null","<p style=""font-size: 50px;"">+</p>","null","html-keyboard-response","144","2.1.0","253057","J=YES, F=NO","zbpw4hbyd4","1","71","57","85","","","","","","","","","","","","","","","",""
"null","audio/beep-329314.mp3","null","audio-keyboard-response","145","2.1.0","254975","J=YES, F=NO","zbpw4hbyd4","1","71","57","85","","","","","","","","","","","","","","","",""
"null","audio/brain.wav","null","audio-keyboard-response","146","2.1.0","255905","J=YES, F=NO","zbpw4hbyd4","1","71","57","85","","","","","","","","","","","","","","","",""
"757","
          <p id=""word"" style=""font-size: 40px;"">throw</p>
          <p style=""font-size: 16px;"">J = YES &nbsp;&nbsp;&nbsp; F = NO</p>
        ","j","html-keyboard-response","147","2.1.0","256664","J=YES, F=NO","zbpw4hbyd4","1","71","57","85","","","","","","","","","throw","brain","filler","filler","j","true","",""
"null","<p style=""font-size: 50px;"">+</p>","null","html-keyboard-response","148","2.1.0","256968","J=YES, F=NO","zbpw4hbyd4","1","71","57","85","","","","","","","","","","","","","","","",""
"null","audio/beep-329314.mp3","null","audio-keyboard-response","149","2.1.0","258888","J=YES, F=NO","zbpw4hbyd4","1","71","57","85","","","","","","","","","","","","","","","",""
"null","audio/dollar.wav","null","audio-keyboard-response","150","2.1.0","259533","J=YES, F=NO","zbpw4hbyd4","1","71","57","85","","","","","","","","","","","","","","","",""
"893","
          <p id=""word"" style=""font-size: 40px;"">gliptism</p>
          <p style=""font-size: 16px;"">J = YES &nbsp;&nbsp;&nbsp; F = NO</p>
        ","f","html-keyboard-response","151","2.1.0","260428","J=YES, F=NO","zbpw4hbyd4","1","71","57","85","","","","","","","","","gliptism","dollar","pseudoword","pseudoword","f","true","",""
"null","<p style=""font-size: 50px;"">+</p>","null","html-keyboard-response","152","2.1.0","260732","J=YES, F=NO","zbpw4hbyd4","1","71","57","85","","","","","","","","","","","","","","","",""
"null","audio/beep-329314.mp3","null","audio-keyboard-response","153","2.1.0","262693","J=YES, F=NO","zbpw4hbyd4","1","71","57","85","","","","","","","","","","","","","","","",""
"null","audio/trust.wav","null","audio-keyboard-response","154","2.1.0","263801","J=YES, F=NO","zbpw4hbyd4","1","71","57","85","","","","","","","","","","","","","","","",""
"827","
          <p id=""word"" style=""font-size: 40px;"">swint</p>
          <p style=""font-size: 16px;"">J = YES &nbsp;&nbsp;&nbsp; F = NO</p>
        ","f","html-keyboard-response","155","2.1.0","264630","J=YES, F=NO","zbpw4hbyd4","1","71","57","85","","","","","","","","","swint","trust","pseudoword","pseudoword","f","true","",""
"null","<p style=""font-size: 50px;"">+</p>","null","html-keyboard-response","156","2.1.0","264934","J=YES, F=NO","zbpw4hbyd4","1","71","57","85","","","","","","","","","","","","","","","",""
"null","audio/beep-329314.mp3","null","audio-keyboard-response","157","2.1.0","266964","J=YES, F=NO","zbpw4hbyd4","1","71","57","85","","","","","","","","","","","","","","","",""
"null","audio/alarm1.wav","null","audio-keyboard-response","158","2.1.0","267890","J=YES, F=NO","zbpw4hbyd4","1","71","57","85","","","","","","","","","","","","","","","",""
"768","
          <p id=""word"" style=""font-size: 40px;"">lock</p>
          <p style=""font-size: 16px;"">J = YES &nbsp;&nbsp;&nbsp; F = NO</p>
        ","f","html-keyboard-response","159","2.1.0","268659","J=YES, F=NO","zbpw4hbyd4","1","71","57","85","","","","","","","","","lock","alarm1","filler","filler","j","false","",""
"null","<p style=""font-size: 50px;"">+</p>","null","html-keyboard-response","160","2.1.0","268962","J=YES, F=NO","zbpw4hbyd4","1","71","57","85","","","","","","","","","","","","","","","",""
"null","audio/beep-329314.mp3","null","audio-keyboard-response","161","2.1.0","270949","J=YES, F=NO","zbpw4hbyd4","1","71","57","85","","","","","","","","","","","","","","","",""
"null","audio/account1.wav","null","audio-keyboard-response","162","2.1.0","272162","J=YES, F=NO","zbpw4hbyd4","1","71","57","85","","","","","","","","","","","","","","","",""
"733","
          <p id=""word"" style=""font-size: 40px;"">paint</p>
          <p style=""font-size: 16px;"">J = YES &nbsp;&nbsp;&nbsp; F = NO</p>
        ","j","html-keyboard-response","163","2.1.0","272897","J=YES, F=NO","zbpw4hbyd4","1","71","57","85","","","","","","","","","paint","account1","filler","filler","j","true","",""
"5521","
    <div style=""max-width: 800px; margin: auto; text-align: left;"">
      <h2>Part 2: Main Trials</h2>
      <p>Great job on the practice trials!</p>
      <p>You will now begin the <strong>main set of trials</strong>.</p>
      <p>Remember your key assignments:</p>
      <ul>
        <li><strong>J</strong> = YES (real English word)</li>
        <li><strong>F</strong> = NO (not a real English word)</li>
      </ul>
      <p>Try to respond as <strong>quickly and accurately</strong> as possible.</p>
      <p style=""margin-top: 2em;"">Press any key to begin the main trials.</p>
    </div>
  ","j","html-keyboard-response","164","2.1.0","278421","J=YES, F=NO","zbpw4hbyd4","1","71","57","85","","","","","","","","","","","","","","","",""
"1610","<p>Starting main block 1 of 8. Press any key to continue.</p>","j","html-keyboard-response","165","2.1.0","280033","J=YES, F=NO","zbpw4hbyd4","1","71","57","85","","","","","","","","","","","","","","","",""
"null","<p style=""font-size: 50px;"">+</p>","null","html-keyboard-response","166","2.1.0","280337","J=YES, F=NO","zbpw4hbyd4","1","71","57","85","","","","","","","","","","","","","","","",""
"null","audio/beep-329314.mp3","null","audio-keyboard-response","167","2.1.0","282356","J=YES, F=NO","zbpw4hbyd4","1","71","57","85","","","","","","","","","","","","","","","",""
"null","audio/ankle1.wav","null","audio-keyboard-response","168","2.1.0","283280","J=YES, F=NO","zbpw4hbyd4","1","71","57","85","","","","","","","","","","","","","","","",""
"751","
          <p id=""word"" style=""font-size: 40px;"">switm</p>
          <p style=""font-size: 16px;"">J = YES &nbsp;&nbsp;&nbsp; F = NO</p>
        ","f","html-keyboard-response","169","2.1.0","284032","J=YES, F=NO","zbpw4hbyd4","1","71","57","85","","","","","","","","","switm","ankle1","pseudoword","pseudoword","f","true","",""
"null","<p style=""font-size: 50px;"">+</p>","null","html-keyboard-response","170","2.1.0","284336","J=YES, F=NO","zbpw4hbyd4","1","71","57","85","","","","","","","","","","","","","","","",""
"null","audio/beep-329314.mp3","null","audio-keyboard-response","171","2.1.0","286257","J=YES, F=NO","zbpw4hbyd4","1","71","57","85","","","","","","","","","","","","","","","",""
"null","audio/ego.wav","null","audio-keyboard-response","172","2.1.0","287088","J=YES, F=NO","zbpw4hbyd4","1","71","57","85","","","","","","","","","","","","","","","",""
"1167","
          <p id=""word"" style=""font-size: 40px;"">bruite</p>
          <p style=""font-size: 16px;"">J = YES &nbsp;&nbsp;&nbsp; F = NO</p>
        ","f","html-keyboard-response","173","2.1.0","288256","J=YES, F=NO","zbpw4hbyd4","1","71","57","85","","","","","","","","","bruite","ego","pseudoword","pseudoword","f","true","",""
"null","<p style=""font-size: 50px;"">+</p>","null","html-keyboard-response","174","2.1.0","288560","J=YES, F=NO","zbpw4hbyd4","1","71","57","85","","","","","","","","","","","","","","","",""
"null","audio/beep-329314.mp3","null","audio-keyboard-response","175","2.1.0","290529","J=YES, F=NO","zbpw4hbyd4","1","71","57","85","","","","","","","","","","","","","","","",""
"null","audio/window1.wav","null","audio-keyboard-response","176","2.1.0","291453","J=YES, F=NO","zbpw4hbyd4","1","71","57","85","","","","","","","","","","","","","","","",""
"754","
          <p id=""word"" style=""font-size: 40px;"">break</p>
          <p style=""font-size: 16px;"">J = YES &nbsp;&nbsp;&nbsp; F = NO</p>
        ","j","html-keyboard-response","177","2.1.0","292208","J=YES, F=NO","zbpw4hbyd4","1","71","57","85","","","","","","","","","break","window1","literal","experimental","j","true","",""
"null","<p style=""font-size: 50px;"">+</p>","null","html-keyboard-response","178","2.1.0","292512","J=YES, F=NO","zbpw4hbyd4","1","71","57","85","","","","","","","","","","","","","","","",""
"null","audio/beep-329314.mp3","null","audio-keyboard-response","179","2.1.0","294427","J=YES, F=NO","zbpw4hbyd4","1","71","57","85","","","","","","","","","","","","","","","",""
"null","audio/camera1.wav","null","audio-keyboard-response","180","2.1.0","295261","J=YES, F=NO","zbpw4hbyd4","1","71","57","85","","","","","","","","","","","","","","","",""
"1128","
          <p id=""word"" style=""font-size: 40px;"">bring</p>
          <p style=""font-size: 16px;"">J = YES &nbsp;&nbsp;&nbsp; F = NO</p>
        ","j","html-keyboard-response","181","2.1.0","296391","J=YES, F=NO","zbpw4hbyd4","1","71","57","85","","","","","","","","","bring","camera1","literal","experimental","j","true","",""
"null","<p style=""font-size: 50px;"">+</p>","null","html-keyboard-response","182","2.1.0","296694","J=YES, F=NO","zbpw4hbyd4","1","71","57","85","","","","","","","","","","","","","","","",""
"null","audio/beep-329314.mp3","null","audio-keyboard-response","183","2.1.0","298609","J=YES, F=NO","zbpw4hbyd4","1","71","57","85","","","","","","","","","","","","","","","",""
"null","audio/bishop1.wav","null","audio-keyboard-response","184","2.1.0","299626","J=YES, F=NO","zbpw4hbyd4","1","71","57","85","","","","","","","","","","","","","","","",""
"1109","
          <p id=""word"" style=""font-size: 40px;"">devour</p>
          <p style=""font-size: 16px;"">J = YES &nbsp;&nbsp;&nbsp; F = NO</p>
        ","j","html-keyboard-response","185","2.1.0","300737","J=YES, F=NO","zbpw4hbyd4","1","71","57","85","","","","","","","","","devour","bishop1","unrelated","experimental","j","true","",""
"null","<p style=""font-size: 50px;"">+</p>","null","html-keyboard-response","186","2.1.0","301040","J=YES, F=NO","zbpw4hbyd4","1","71","57","85","","","","","","","","","","","","","","","",""
"null","audio/beep-329314.mp3","null","audio-keyboard-response","187","2.1.0","302973","J=YES, F=NO","zbpw4hbyd4","1","71","57","85","","","","","","","","","","","","","","","",""
"null","audio/scar.wav","null","audio-keyboard-response","188","2.1.0","303900","J=YES, F=NO","zbpw4hbyd4","1","71","57","85","","","","","","","","","","","","","","","",""
"1001","
          <p id=""word"" style=""font-size: 40px;"">adelineate</p>
          <p style=""font-size: 16px;"">J = YES &nbsp;&nbsp;&nbsp; F = NO</p>
        ","f","html-keyboard-response","189","2.1.0","304903","J=YES, F=NO","zbpw4hbyd4","1","71","57","85","","","","","","","","","adelineate","scar","pseudoword","pseudoword","f","true","",""
"null","<p style=""font-size: 50px;"">+</p>","null","html-keyboard-response","190","2.1.0","305206","J=YES, F=NO","zbpw4hbyd4","1","71","57","85","","","","","","","","","","","","","","","",""
"null","audio/beep-329314.mp3","null","audio-keyboard-response","191","2.1.0","307153","J=YES, F=NO","zbpw4hbyd4","1","71","57","85","","","","","","","","","","","","","","","",""
"null","audio/hotel1.wav","null","audio-keyboard-response","192","2.1.0","308075","J=YES, F=NO","zbpw4hbyd4","1","71","57","85","","","","","","","","","","","","","","","",""
"1045","
          <p id=""word"" style=""font-size: 40px;"">flanter</p>
          <p style=""font-size: 16px;"">J = YES &nbsp;&nbsp;&nbsp; F = NO</p>
        ","f","html-keyboard-response","193","2.1.0","309122","J=YES, F=NO","zbpw4hbyd4","1","71","57","85","","","","","","","","","flanter","hotel1","pseudoword","pseudoword","f","true","",""
"null","<p style=""font-size: 50px;"">+</p>","null","html-keyboard-response","194","2.1.0","309425","J=YES, F=NO","zbpw4hbyd4","1","71","57","85","","","","","","","","","","","","","","","",""
"null","audio/beep-329314.mp3","null","audio-keyboard-response","195","2.1.0","311428","J=YES, F=NO","zbpw4hbyd4","1","71","57","85","","","","","","","","","","","","","","","",""
"null","audio/radio1.wav","null","audio-keyboard-response","196","2.1.0","312351","J=YES, F=NO","zbpw4hbyd4","1","71","57","85","","","","","","","","","","","","","","","",""
"823","
          <p id=""word"" style=""font-size: 40px;"">blanter</p>
          <p style=""font-size: 16px;"">J = YES &nbsp;&nbsp;&nbsp; F = NO</p>
        ","j","html-keyboard-response","197","2.1.0","313175","J=YES, F=NO","zbpw4hbyd4","1","71","57","85","","","","","","","","","blanter","radio1","pseudoword","pseudoword","f","false","",""
"null","<p style=""font-size: 50px;"">+</p>","null","html-keyboard-response","198","2.1.0","313479","J=YES, F=NO","zbpw4hbyd4","1","71","57","85","","","","","","","","","","","","","","","",""
"null","audio/beep-329314.mp3","null","audio-keyboard-response","199","2.1.0","315423","J=YES, F=NO","zbpw4hbyd4","1","71","57","85","","","","","","","","","","","","","","","",""
"null","audio/menu.wav","null","audio-keyboard-response","200","2.1.0","316252","J=YES, F=NO","zbpw4hbyd4","1","71","57","85","","","","","","","","","","","","","","","",""
"867","
          <p id=""word"" style=""font-size: 40px;"">slice</p>
          <p style=""font-size: 16px;"">J = YES &nbsp;&nbsp;&nbsp; F = NO</p>
        ","j","html-keyboard-response","201","2.1.0","317120","J=YES, F=NO","zbpw4hbyd4","1","71","57","85","","","","","","","","","slice","menu","filler","filler","j","true","",""
"null","<p style=""font-size: 50px;"">+</p>","null","html-keyboard-response","202","2.1.0","317423","J=YES, F=NO","zbpw4hbyd4","1","71","57","85","","","","","","","","","","","","","","","",""
"null","audio/beep-329314.mp3","null","audio-keyboard-response","203","2.1.0","319416","J=YES, F=NO","zbpw4hbyd4","1","71","57","85","","","","","","","","","","","","","","","",""
"null","audio/rain.wav","null","audio-keyboard-response","204","2.1.0","320153","J=YES, F=NO","zbpw4hbyd4","1","71","57","85","","","","","","","","","","","","","","","",""
"835","
          <p id=""word"" style=""font-size: 40px;"">lose</p>
          <p style=""font-size: 16px;"">J = YES &nbsp;&nbsp;&nbsp; F = NO</p>
        ","j","html-keyboard-response","205","2.1.0","320988","J=YES, F=NO","zbpw4hbyd4","1","71","57","85","","","","","","","","","lose","rain","unrelated","experimental","j","true","",""
"null","<p style=""font-size: 50px;"">+</p>","null","html-keyboard-response","206","2.1.0","321292","J=YES, F=NO","zbpw4hbyd4","1","71","57","85","","","","","","","","","","","","","","","",""
"null","audio/beep-329314.mp3","null","audio-keyboard-response","207","2.1.0","323224","J=YES, F=NO","zbpw4hbyd4","1","71","57","85","","","","","","","","","","","","","","","",""
"null","audio/tunnel.wav","null","audio-keyboard-response","208","2.1.0","323963","J=YES, F=NO","zbpw4hbyd4","1","71","57","85","","","","","","","","","","","","","","","",""
"1069","
          <p id=""word"" style=""font-size: 40px;"">gred</p>
          <p style=""font-size: 16px;"">J = YES &nbsp;&nbsp;&nbsp; F = NO</p>
        ","f","html-keyboard-response","209","2.1.0","325033","J=YES, F=NO","zbpw4hbyd4","1","71","57","85","","","","","","","","","gred","tunnel","pseudoword","pseudoword","f","true","",""
"null","<p style=""font-size: 50px;"">+</p>","null","html-keyboard-response","210","2.1.0","325336","J=YES, F=NO","zbpw4hbyd4","1","71","57","85","","","","","","","","","","","","","","","",""
"null","audio/beep-329314.mp3","null","audio-keyboard-response","211","2.1.0","327308","J=YES, F=NO","zbpw4hbyd4","1","71","57","85","","","","","","","","","","","","","","","",""
"null","audio/baby.wav","null","audio-keyboard-response","212","2.1.0","328047","J=YES, F=NO","zbpw4hbyd4","1","71","57","85","","","","","","","","","","","","","","","",""
"735","
          <p id=""word"" style=""font-size: 40px;"">lift</p>
          <p style=""font-size: 16px;"">J = YES &nbsp;&nbsp;&nbsp; F = NO</p>
        ","j","html-keyboard-response","213","2.1.0","328783","J=YES, F=NO","zbpw4hbyd4","1","71","57","85","","","","","","","","","lift","baby","filler","filler","j","true","",""
"null","<p style=""font-size: 50px;"">+</p>","null","html-keyboard-response","214","2.1.0","329086","J=YES, F=NO","zbpw4hbyd4","1","71","57","85","","","","","","","","","","","","","","","",""
"null","audio/beep-329314.mp3","null","audio-keyboard-response","215","2.1.0","331023","J=YES, F=NO","zbpw4hbyd4","1","71","57","85","","","","","","","","","","","","","","","",""
"null","audio/budget1.wav","null","audio-keyboard-response","216","2.1.0","331949","J=YES, F=NO","zbpw4hbyd4","1","71","57","85","","","","","","","","","","","","","","","",""
"1290","
          <p id=""word"" style=""font-size: 40px;"">sulist</p>
          <p style=""font-size: 16px;"">J = YES &nbsp;&nbsp;&nbsp; F = NO</p>
        ","f","html-keyboard-response","217","2.1.0","333240","J=YES, F=NO","zbpw4hbyd4","1","71","57","85","","","","","","","","","sulist","budget1","pseudoword","pseudoword","f","true","",""
"null","<p style=""font-size: 50px;"">+</p>","null","html-keyboard-response","218","2.1.0","333544","J=YES, F=NO","zbpw4hbyd4","1","71","57","85","","","","","","","","","","","","","","","",""
"null","audio/beep-329314.mp3","null","audio-keyboard-response","219","2.1.0","335482","J=YES, F=NO","zbpw4hbyd4","1","71","57","85","","","","","","","","","","","","","","","",""
"null","audio/stain.wav","null","audio-keyboard-response","220","2.1.0","336409","J=YES, F=NO","zbpw4hbyd4","1","71","57","85","","","","","","","","","","","","","","","",""
"786","
          <p id=""word"" style=""font-size: 40px;"">wipe</p>
          <p style=""font-size: 16px;"">J = YES &nbsp;&nbsp;&nbsp; F = NO</p>
        ","j","html-keyboard-response","221","2.1.0","337196","J=YES, F=NO","zbpw4hbyd4","1","71","57","85","","","","","","","","","wipe","stain","literal","experimental","j","true","",""
"null","<p style=""font-size: 50px;"">+</p>","null","html-keyboard-response","222","2.1.0","337499","J=YES, F=NO","zbpw4hbyd4","1","71","57","85","","","","","","","","","","","","","","","",""
"null","audio/beep-329314.mp3","null","audio-keyboard-response","223","2.1.0","339475","J=YES, F=NO","zbpw4hbyd4","1","71","57","85","","","","","","","","","","","","","","","",""
"null","audio/cave1.wav","null","audio-keyboard-response","224","2.1.0","340296","J=YES, F=NO","zbpw4hbyd4","1","71","57","85","","","","","","","","","","","","","","","",""
"1027","
          <p id=""word"" style=""font-size: 40px;"">blacket</p>
          <p style=""font-size: 16px;"">J = YES &nbsp;&nbsp;&nbsp; F = NO</p>
        ","f","html-keyboard-response","225","2.1.0","341325","J=YES, F=NO","zbpw4hbyd4","1","71","57","85","","","","","","","","","blacket","cave1","pseudoword","pseudoword","f","true","",""
"null","<p style=""font-size: 50px;"">+</p>","null","html-keyboard-response","226","2.1.0","341628","J=YES, F=NO","zbpw4hbyd4","1","71","57","85","","","","","","","","","","","","","","","",""
"null","audio/beep-329314.mp3","null","audio-keyboard-response","227","2.1.0","343562","J=YES, F=NO","zbpw4hbyd4","1","71","57","85","","","","","","","","","","","","","","","",""
"null","audio/stain.wav","null","audio-keyboard-response","228","2.1.0","344582","J=YES, F=NO","zbpw4hbyd4","1","71","57","85","","","","","","","","","","","","","","","",""
"844","
          <p id=""word"" style=""font-size: 40px;"">rumpsied</p>
          <p style=""font-size: 16px;"">J = YES &nbsp;&nbsp;&nbsp; F = NO</p>
        ","f","html-keyboard-response","229","2.1.0","345427","J=YES, F=NO","zbpw4hbyd4","1","71","57","85","","","","","","","","","rumpsied","stain","pseudoword","pseudoword","f","true","",""
"48213","<p>Excellent! You have finished block 1 of 8.</p>
                     <p>Feel free to take a 30 second break.</p>
                     <p>Press any key when you're ready to continue.</p>","Enter","html-keyboard-response","230","2.1.0","393640","J=YES, F=NO","zbpw4hbyd4","1","71","57","85","","","","","","","","","","","","","","","",""
"1063","<p>Starting main block 2 of 8. Press any key to continue.</p>","Enter","html-keyboard-response","231","2.1.0","394706","J=YES, F=NO","zbpw4hbyd4","1","71","57","85","","","","","","","","","","","","","","","",""
"null","<p style=""font-size: 50px;"">+</p>","null","html-keyboard-response","232","2.1.0","395009","J=YES, F=NO","zbpw4hbyd4","1","71","57","85","","","","","","","","","","","","","","","",""
"null","audio/beep-329314.mp3","null","audio-keyboard-response","233","2.1.0","397032","J=YES, F=NO","zbpw4hbyd4","1","71","57","85","","","","","","","","","","","","","","","",""
"null","audio/neck.wav","null","audio-keyboard-response","234","2.1.0","397859","J=YES, F=NO","zbpw4hbyd4","1","71","57","85","","","","","","","","","","","","","","","",""
"662","
          <p id=""word"" style=""font-size: 40px;"">share</p>
          <p style=""font-size: 16px;"">J = YES &nbsp;&nbsp;&nbsp; F = NO</p>
        ","j","html-keyboard-response","235","2.1.0","398521","J=YES, F=NO","zbpw4hbyd4","1","71","57","85","","","","","","","","","share","neck","unrelated","experimental","j","true","",""
"null","<p style=""font-size: 50px;"">+</p>","null","html-keyboard-response","236","2.1.0","398824","J=YES, F=NO","zbpw4hbyd4","1","71","57","85","","","","","","","","","","","","","","","",""
"null","audio/beep-329314.mp3","null","audio-keyboard-response","237","2.1.0","400747","J=YES, F=NO","zbpw4hbyd4","1","71","57","85","","","","","","","","","","","","","","","",""
"null","audio/foe1.wav","null","audio-keyboard-response","238","2.1.0","401575","J=YES, F=NO","zbpw4hbyd4","1","71","57","85","","","","","","","","","","","","","","","",""
"793","
          <p id=""word"" style=""font-size: 40px;"">creth</p>
          <p style=""font-size: 16px;"">J = YES &nbsp;&nbsp;&nbsp; F = NO</p>
        ","f","html-keyboard-response","239","2.1.0","402370","J=YES, F=NO","zbpw4hbyd4","1","71","57","85","","","","","","","","","creth","foe1","pseudoword","pseudoword","f","true","",""
"null","<p style=""font-size: 50px;"">+</p>","null","html-keyboard-response","240","2.1.0","402673","J=YES, F=NO","zbpw4hbyd4","1","71","57","85","","","","","","","","","","","","","","","",""
"null","audio/beep-329314.mp3","null","audio-keyboard-response","241","2.1.0","404642","J=YES, F=NO","zbpw4hbyd4","1","71","57","85","","","","","","","","","","","","","","","",""
"null","audio/corpse1.wav","null","audio-keyboard-response","242","2.1.0","405565","J=YES, F=NO","zbpw4hbyd4","1","71","57","85","","","","","","","","","","","","","","","",""
"853","
          <p id=""word"" style=""font-size: 40px;"">glonet</p>
          <p style=""font-size: 16px;"">J = YES &nbsp;&nbsp;&nbsp; F = NO</p>
        ","f","html-keyboard-response","243","2.1.0","406419","J=YES, F=NO","zbpw4hbyd4","1","71","57","85","","","","","","","","","glonet","corpse1","pseudoword","pseudoword","f","true","",""
"null","<p style=""font-size: 50px;"">+</p>","null","html-keyboard-response","244","2.1.0","406722","J=YES, F=NO","zbpw4hbyd4","1","71","57","85","","","","","","","","","","","","","","","",""
"null","audio/beep-329314.mp3","null","audio-keyboard-response","245","2.1.0","408636","J=YES, F=NO","zbpw4hbyd4","1","71","57","85","","","","","","","","","","","","","","","",""
"null","audio/test1.wav","null","audio-keyboard-response","246","2.1.0","409467","J=YES, F=NO","zbpw4hbyd4","1","71","57","85","","","","","","","","","","","","","","","",""
"698","
          <p id=""word"" style=""font-size: 40px;"">twopch</p>
          <p style=""font-size: 16px;"">J = YES &nbsp;&nbsp;&nbsp; F = NO</p>
        ","f","html-keyboard-response","247","2.1.0","410167","J=YES, F=NO","zbpw4hbyd4","1","71","57","85","","","","","","","","","twopch","test1","pseudoword","pseudoword","f","true","",""
"null","<p style=""font-size: 50px;"">+</p>","null","html-keyboard-response","248","2.1.0","410470","J=YES, F=NO","zbpw4hbyd4","1","71","57","85","","","","","","","","","","","","","","","",""
"null","audio/beep-329314.mp3","null","audio-keyboard-response","249","2.1.0","412447","J=YES, F=NO","zbpw4hbyd4","1","71","57","85","","","","","","","","","","","","","","","",""
"null","audio/soul.wav","null","audio-keyboard-response","250","2.1.0","413369","J=YES, F=NO","zbpw4hbyd4","1","71","57","85","","","","","","","","","","","","","","","",""
"777","
          <p id=""word"" style=""font-size: 40px;"">sell</p>
          <p style=""font-size: 16px;"">J = YES &nbsp;&nbsp;&nbsp; F = NO</p>
        ","j","html-keyboard-response","251","2.1.0","414147","J=YES, F=NO","zbpw4hbyd4","1","71","57","85","","","","","","","","","sell","soul","metaphor","experimental","j","true","",""
"null","<p style=""font-size: 50px;"">+</p>","null","html-keyboard-response","252","2.1.0","414450","J=YES, F=NO","zbpw4hbyd4","1","71","57","85","","","","","","","","","","","","","","","",""
"null","audio/beep-329314.mp3","null","audio-keyboard-response","253","2.1.0","416442","J=YES, F=NO","zbpw4hbyd4","1","71","57","85","","","","","","","","","","","","","","","",""
"null","audio/strength.wav","null","audio-keyboard-response","254","2.1.0","417453","J=YES, F=NO","zbpw4hbyd4","1","71","57","85","","","","","","","","","","","","","","","",""
"901","
          <p id=""word"" style=""font-size: 40px;"">possess</p>
          <p style=""font-size: 16px;"">J = YES &nbsp;&nbsp;&nbsp; F = NO</p>
        ","j","html-keyboard-response","255","2.1.0","418355","J=YES, F=NO","zbpw4hbyd4","1","71","57","85","","","","","","","","","possess","strength","metaphor","experimental","j","true","",""
"null","<p style=""font-size: 50px;"">+</p>","null","html-keyboard-response","256","2.1.0","418658","J=YES, F=NO","zbpw4hbyd4","1","71","57","85","","","","","","","","","","","","","","","",""
"null","audio/beep-329314.mp3","null","audio-keyboard-response","257","2.1.0","420614","J=YES, F=NO","zbpw4hbyd4","1","71","57","85","","","","","","","","","","","","","","","",""
"null","audio/sand.wav","null","audio-keyboard-response","258","2.1.0","421542","J=YES, F=NO","zbpw4hbyd4","1","71","57","85","","","","","","","","","","","","","","","",""
"844","
          <p id=""word"" style=""font-size: 40px;"">proted</p>
          <p style=""font-size: 16px;"">J = YES &nbsp;&nbsp;&nbsp; F = NO</p>
        ","f","html-keyboard-response","259","2.1.0","422387","J=YES, F=NO","zbpw4hbyd4","1","71","57","85","","","","","","","","","proted","sand","pseudoword","pseudoword","f","true","",""
"null","<p style=""font-size: 50px;"">+</p>","null","html-keyboard-response","260","2.1.0","422690","J=YES, F=NO","zbpw4hbyd4","1","71","57","85","","","","","","","","","","","","","","","",""
"null","audio/beep-329314.mp3","null","audio-keyboard-response","261","2.1.0","424610","J=YES, F=NO","zbpw4hbyd4","1","71","57","85","","","","","","","","","","","","","","","",""
"null","audio/test1.wav","null","audio-keyboard-response","262","2.1.0","425536","J=YES, F=NO","zbpw4hbyd4","1","71","57","85","","","","","","","","","","","","","","","",""
"844","
          <p id=""word"" style=""font-size: 40px;"">run</p>
          <p style=""font-size: 16px;"">J = YES &nbsp;&nbsp;&nbsp; F = NO</p>
        ","j","html-keyboard-response","263","2.1.0","426381","J=YES, F=NO","zbpw4hbyd4","1","71","57","85","","","","","","","","","run","test1","metaphor","experimental","j","true","",""
"null","<p style=""font-size: 50px;"">+</p>","null","html-keyboard-response","264","2.1.0","426684","J=YES, F=NO","zbpw4hbyd4","1","71","57","85","","","","","","","","","","","","","","","",""
"null","audio/beep-329314.mp3","null","audio-keyboard-response","265","2.1.0","428611","J=YES, F=NO","zbpw4hbyd4","1","71","57","85","","","","","","","","","","","","","","","",""
"null","audio/floor.wav","null","audio-keyboard-response","266","2.1.0","429439","J=YES, F=NO","zbpw4hbyd4","1","71","57","85","","","","","","","","","","","","","","","",""
"966","
          <p id=""word"" style=""font-size: 40px;"">mop</p>
          <p style=""font-size: 16px;"">J = YES &nbsp;&nbsp;&nbsp; F = NO</p>
        ","j","html-keyboard-response","267","2.1.0","430407","J=YES, F=NO","zbpw4hbyd4","1","71","57","85","","","","","","","","","mop","floor","filler","filler","j","true","",""
"null","<p style=""font-size: 50px;"">+</p>","null","html-keyboard-response","268","2.1.0","430710","J=YES, F=NO","zbpw4hbyd4","1","71","57","85","","","","","","","","","","","","","","","",""
"null","audio/beep-329314.mp3","null","audio-keyboard-response","269","2.1.0","432693","J=YES, F=NO","zbpw4hbyd4","1","71","57","85","","","","","","","","","","","","","","","",""
"null","audio/train.wav","null","audio-keyboard-response","270","2.1.0","433527","J=YES, F=NO","zbpw4hbyd4","1","71","57","85","","","","","","","","","","","","","","","",""
"771","
          <p id=""word"" style=""font-size: 40px;"">catch</p>
          <p style=""font-size: 16px;"">J = YES &nbsp;&nbsp;&nbsp; F = NO</p>
        ","j","html-keyboard-response","271","2.1.0","434300","J=YES, F=NO","zbpw4hbyd4","1","71","57","85","","","","","","","","","catch","train","metaphor","experimental","j","true","",""
"null","<p style=""font-size: 50px;"">+</p>","null","html-keyboard-response","272","2.1.0","434603","J=YES, F=NO","zbpw4hbyd4","1","71","57","85","","","","","","","","","","","","","","","",""
"null","audio/beep-329314.mp3","null","audio-keyboard-response","273","2.1.0","436593","J=YES, F=NO","zbpw4hbyd4","1","71","57","85","","","","","","","","","","","","","","","",""
"null","audio/sugar1.wav","null","audio-keyboard-response","274","2.1.0","437329","J=YES, F=NO","zbpw4hbyd4","1","71","57","85","","","","","","","","","","","","","","","",""
"736","
          <p id=""word"" style=""font-size: 40px;"">glung</p>
          <p style=""font-size: 16px;"">J = YES &nbsp;&nbsp;&nbsp; F = NO</p>
        ","f","html-keyboard-response","275","2.1.0","438066","J=YES, F=NO","zbpw4hbyd4","1","71","57","85","","","","","","","","","glung","sugar1","pseudoword","pseudoword","f","true","",""
"null","<p style=""font-size: 50px;"">+</p>","null","html-keyboard-response","276","2.1.0","438369","J=YES, F=NO","zbpw4hbyd4","1","71","57","85","","","","","","","","","","","","","","","",""
"null","audio/beep-329314.mp3","null","audio-keyboard-response","277","2.1.0","440313","J=YES, F=NO","zbpw4hbyd4","1","71","57","85","","","","","","","","","","","","","","","",""
"null","audio/terrain.wav","null","audio-keyboard-response","278","2.1.0","441233","J=YES, F=NO","zbpw4hbyd4","1","71","57","85","","","","","","","","","","","","","","","",""
"724","
          <p id=""word"" style=""font-size: 40px;"">twist</p>
          <p style=""font-size: 16px;"">J = YES &nbsp;&nbsp;&nbsp; F = NO</p>
        ","j","html-keyboard-response","279","2.1.0","441958","J=YES, F=NO","zbpw4hbyd4","1","71","57","85","","","","","","","","","twist","terrain","filler","filler","j","true","",""
"null","<p style=""font-size: 50px;"">+</p>","null","html-keyboard-response","280","2.1.0","442261","J=YES, F=NO","zbpw4hbyd4","1","71","57","85","","","","","","","","","","","","","","","",""
"null","audio/beep-329314.mp3","null","audio-keyboard-response","281","2.1.0","444215","J=YES, F=NO","zbpw4hbyd4","1","71","57","85","","","","","","","","","","","","","","","",""
"null","audio/show.wav","null","audio-keyboard-response","282","2.1.0","445043","J=YES, F=NO","zbpw4hbyd4","1","71","57","85","","","","","","","","","","","","","","","",""
"792","
          <p id=""word"" style=""font-size: 40px;"">hold</p>
          <p style=""font-size: 16px;"">J = YES &nbsp;&nbsp;&nbsp; F = NO</p>
        ","j","html-keyboard-response","283","2.1.0","445836","J=YES, F=NO","zbpw4hbyd4","1","71","57","85","","","","","","","","","hold","show","metaphor","experimental","j","true","",""
"null","<p style=""font-size: 50px;"">+</p>","null","html-keyboard-response","284","2.1.0","446139","J=YES, F=NO","zbpw4hbyd4","1","71","57","85","","","","","","","","","","","","","","","",""
"null","audio/beep-329314.mp3","null","audio-keyboard-response","285","2.1.0","448113","J=YES, F=NO","zbpw4hbyd4","1","71","57","85","","","","","","","","","","","","","","","",""
"null","audio/mind.wav","null","audio-keyboard-response","286","2.1.0","448941","J=YES, F=NO","zbpw4hbyd4","1","71","57","85","","","","","","","","","","","","","","","",""
"887","
          <p id=""word"" style=""font-size: 40px;"">clear</p>
          <p style=""font-size: 16px;"">J = YES &nbsp;&nbsp;&nbsp; F = NO</p>
        ","j","html-keyboard-response","287","2.1.0","449829","J=YES, F=NO","zbpw4hbyd4","1","71","57","85","","","","","","","","","clear","mind","metaphor","experimental","j","true","",""
"null","<p style=""font-size: 50px;"">+</p>","null","html-keyboard-response","288","2.1.0","450132","J=YES, F=NO","zbpw4hbyd4","1","71","57","85","","","","","","","","","","","","","","","",""
"null","audio/beep-329314.mp3","null","audio-keyboard-response","289","2.1.0","452105","J=YES, F=NO","zbpw4hbyd4","1","71","57","85","","","","","","","","","","","","","","","",""
"null","audio/pine.wav","null","audio-keyboard-response","290","2.1.0","452935","J=YES, F=NO","zbpw4hbyd4","1","71","57","85","","","","","","","","","","","","","","","",""
"1366","
          <p id=""word"" style=""font-size: 40px;"">crebble</p>
          <p style=""font-size: 16px;"">J = YES &nbsp;&nbsp;&nbsp; F = NO</p>
        ","j","html-keyboard-response","291","2.1.0","454301","J=YES, F=NO","zbpw4hbyd4","1","71","57","85","","","","","","","","","crebble","pine","pseudoword","pseudoword","f","false","",""
"null","<p style=""font-size: 50px;"">+</p>","null","html-keyboard-response","292","2.1.0","454605","J=YES, F=NO","zbpw4hbyd4","1","71","57","85","","","","","","","","","","","","","","","",""
"null","audio/beep-329314.mp3","null","audio-keyboard-response","293","2.1.0","456567","J=YES, F=NO","zbpw4hbyd4","1","71","57","85","","","","","","","","","","","","","","","",""
"null","audio/arm.wav","null","audio-keyboard-response","294","2.1.0","457485","J=YES, F=NO","zbpw4hbyd4","1","71","57","85","","","","","","","","","","","","","","","",""
"760","
          <p id=""word"" style=""font-size: 40px;"">fold</p>
          <p style=""font-size: 16px;"">J = YES &nbsp;&nbsp;&nbsp; F = NO</p>
        ","j","html-keyboard-response","295","2.1.0","458246","J=YES, F=NO","zbpw4hbyd4","1","71","57","85","","","","","","","","","fold","arm","filler","filler","j","true","",""
"3093","<p>Excellent! You have finished block 2 of 8.</p>
                     <p>Feel free to take a 30 second break.</p>
                     <p>Press any key when you're ready to continue.</p>","j","html-keyboard-response","296","2.1.0","461341","J=YES, F=NO","zbpw4hbyd4","1","71","57","85","","","","","","","","","","","","","","","",""
"1483","<p>Starting main block 3 of 8. Press any key to continue.</p>","j","html-keyboard-response","297","2.1.0","462826","J=YES, F=NO","zbpw4hbyd4","1","71","57","85","","","","","","","","","","","","","","","",""
"null","<p style=""font-size: 50px;"">+</p>","null","html-keyboard-response","298","2.1.0","463130","J=YES, F=NO","zbpw4hbyd4","1","71","57","85","","","","","","","","","","","","","","","",""
"null","audio/beep-329314.mp3","null","audio-keyboard-response","299","2.1.0","465108","J=YES, F=NO","zbpw4hbyd4","1","71","57","85","","","","","","","","","","","","","","","",""
"null","audio/handle.wav","null","audio-keyboard-response","300","2.1.0","466019","J=YES, F=NO","zbpw4hbyd4","1","71","57","85","","","","","","","","","","","","","","","",""
"845","
          <p id=""word"" style=""font-size: 40px;"">moutes</p>
          <p style=""font-size: 16px;"">J = YES &nbsp;&nbsp;&nbsp; F = NO</p>
        ","f","html-keyboard-response","301","2.1.0","466866","J=YES, F=NO","zbpw4hbyd4","1","71","57","85","","","","","","","","","moutes","handle","pseudoword","pseudoword","f","true","",""
"null","<p style=""font-size: 50px;"">+</p>","null","html-keyboard-response","302","2.1.0","467170","J=YES, F=NO","zbpw4hbyd4","1","71","57","85","","","","","","","","","","","","","","","",""
"null","audio/beep-329314.mp3","null","audio-keyboard-response","303","2.1.0","469100","J=YES, F=NO","zbpw4hbyd4","1","71","57","85","","","","","","","","","","","","","","","",""
"null","audio/age1.wav","null","audio-keyboard-response","304","2.1.0","470026","J=YES, F=NO","zbpw4hbyd4","1","71","57","85","","","","","","","","","","","","","","","",""
"726","
          <p id=""word"" style=""font-size: 40px;"">bake</p>
          <p style=""font-size: 16px;"">J = YES &nbsp;&nbsp;&nbsp; F = NO</p>
        ","j","html-keyboard-response","305","2.1.0","470753","J=YES, F=NO","zbpw4hbyd4","1","71","57","85","","","","","","","","","bake","age1","filler","filler","j","true","",""
"null","<p style=""font-size: 50px;"">+</p>","null","html-keyboard-response","306","2.1.0","471056","J=YES, F=NO","zbpw4hbyd4","1","71","57","85","","","","","","","","","","","","","","","",""
"null","audio/beep-329314.mp3","null","audio-keyboard-response","307","2.1.0","473005","J=YES, F=NO","zbpw4hbyd4","1","71","57","85","","","","","","","","","","","","","","","",""
"null","audio/pig.wav","null","audio-keyboard-response","308","2.1.0","473648","J=YES, F=NO","zbpw4hbyd4","1","71","57","85","","","","","","","","","","","","","","","",""
"860","
          <p id=""word"" style=""font-size: 40px;"">tirlike</p>
          <p style=""font-size: 16px;"">J = YES &nbsp;&nbsp;&nbsp; F = NO</p>
        ","f","html-keyboard-response","309","2.1.0","474508","J=YES, F=NO","zbpw4hbyd4","1","71","57","85","","","","","","","","","tirlike","pig","pseudoword","pseudoword","f","true","",""
"null","<p style=""font-size: 50px;"">+</p>","null","html-keyboard-response","310","2.1.0","474812","J=YES, F=NO","zbpw4hbyd4","1","71","57","85","","","","","","","","","","","","","","","",""
"null","audio/beep-329314.mp3","null","audio-keyboard-response","311","2.1.0","476813","J=YES, F=NO","zbpw4hbyd4","1","71","57","85","","","","","","","","","","","","","","","",""
"null","audio/flaw.wav","null","audio-keyboard-response","312","2.1.0","477734","J=YES, F=NO","zbpw4hbyd4","1","71","57","85","","","","","","","","","","","","","","","",""
"1291","
          <p id=""word"" style=""font-size: 40px;"">thwool</p>
          <p style=""font-size: 16px;"">J = YES &nbsp;&nbsp;&nbsp; F = NO</p>
        ","f","html-keyboard-response","313","2.1.0","479027","J=YES, F=NO","zbpw4hbyd4","1","71","57","85","","","","","","","","","thwool","flaw","pseudoword","pseudoword","f","true","",""
"null","<p style=""font-size: 50px;"">+</p>","null","html-keyboard-response","314","2.1.0","479330","J=YES, F=NO","zbpw4hbyd4","1","71","57","85","","","","","","","","","","","","","","","",""
"null","audio/beep-329314.mp3","null","audio-keyboard-response","315","2.1.0","481265","J=YES, F=NO","zbpw4hbyd4","1","71","57","85","","","","","","","","","","","","","","","",""
"null","audio/battle1.wav","null","audio-keyboard-response","316","2.1.0","482008","J=YES, F=NO","zbpw4hbyd4","1","71","57","85","","","","","","","","","","","","","","","",""
"818","
          <p id=""word"" style=""font-size: 40px;"">fight</p>
          <p style=""font-size: 16px;"">J = YES &nbsp;&nbsp;&nbsp; F = NO</p>
        ","j","html-keyboard-response","317","2.1.0","482827","J=YES, F=NO","zbpw4hbyd4","1","71","57","85","","","","","","","","","fight","battle1","literal","experimental","j","true","",""
"null","<p style=""font-size: 50px;"">+</p>","null","html-keyboard-response","318","2.1.0","483129","J=YES, F=NO","zbpw4hbyd4","1","71","57","85","","","","","","","","","","","","","","","",""
"null","audio/beep-329314.mp3","null","audio-keyboard-response","319","2.1.0","485078","J=YES, F=NO","zbpw4hbyd4","1","71","57","85","","","","","","","","","","","","","","","",""
"null","audio/demon1.wav","null","audio-keyboard-response","320","2.1.0","485907","J=YES, F=NO","zbpw4hbyd4","1","71","57","85","","","","","","","","","","","","","","","",""
"775","
          <p id=""word"" style=""font-size: 40px;"">wrestle</p>
          <p style=""font-size: 16px;"">J = YES &nbsp;&nbsp;&nbsp; F = NO</p>
        ","j","html-keyboard-response","321","2.1.0","486684","J=YES, F=NO","zbpw4hbyd4","1","71","57","85","","","","","","","","","wrestle","demon1","metaphor","experimental","j","true","",""
"null","<p style=""font-size: 50px;"">+</p>","null","html-keyboard-response","322","2.1.0","486987","J=YES, F=NO","zbpw4hbyd4","1","71","57","85","","","","","","","","","","","","","","","",""
"null","audio/beep-329314.mp3","null","audio-keyboard-response","323","2.1.0","488975","J=YES, F=NO","zbpw4hbyd4","1","71","57","85","","","","","","","","","","","","","","","",""
"null","audio/window1.wav","null","audio-keyboard-response","324","2.1.0","489990","J=YES, F=NO","zbpw4hbyd4","1","71","57","85","","","","","","","","","","","","","","","",""
"1031","
          <p id=""word"" style=""font-size: 40px;"">toss</p>
          <p style=""font-size: 16px;"">J = YES &nbsp;&nbsp;&nbsp; F = NO</p>
        ","j","html-keyboard-response","325","2.1.0","491022","J=YES, F=NO","zbpw4hbyd4","1","71","57","85","","","","","","","","","toss","window1","filler","filler","j","true","",""
"null","<p style=""font-size: 50px;"">+</p>","null","html-keyboard-response","326","2.1.0","491325","J=YES, F=NO","zbpw4hbyd4","1","71","57","85","","","","","","","","","","","","","","","",""
"null","audio/beep-329314.mp3","null","audio-keyboard-response","327","2.1.0","493249","J=YES, F=NO","zbpw4hbyd4","1","71","57","85","","","","","","","","","","","","","","","",""
"null","audio/show.wav","null","audio-keyboard-response","328","2.1.0","494174","J=YES, F=NO","zbpw4hbyd4","1","71","57","85","","","","","","","","","","","","","","","",""
"926","
          <p id=""word"" style=""font-size: 40px;"">smark</p>
          <p style=""font-size: 16px;"">J = YES &nbsp;&nbsp;&nbsp; F = NO</p>
        ","f","html-keyboard-response","329","2.1.0","495101","J=YES, F=NO","zbpw4hbyd4","1","71","57","85","","","","","","","","","smark","show","pseudoword","pseudoword","f","true","",""
"null","<p style=""font-size: 50px;"">+</p>","null","html-keyboard-response","330","2.1.0","495405","J=YES, F=NO","zbpw4hbyd4","1","71","57","85","","","","","","","","","","","","","","","",""
"null","audio/beep-329314.mp3","null","audio-keyboard-response","331","2.1.0","497340","J=YES, F=NO","zbpw4hbyd4","1","71","57","85","","","","","","","","","","","","","","","",""
"null","audio/radio1.wav","null","audio-keyboard-response","332","2.1.0","498351","J=YES, F=NO","zbpw4hbyd4","1","71","57","85","","","","","","","","","","","","","","","",""
"957","
          <p id=""word"" style=""font-size: 40px;"">spend</p>
          <p style=""font-size: 16px;"">J = YES &nbsp;&nbsp;&nbsp; F = NO</p>
        ","j","html-keyboard-response","333","2.1.0","499309","J=YES, F=NO","zbpw4hbyd4","1","71","57","85","","","","","","","","","spend","radio1","unrelated","experimental","j","true","",""
"null","<p style=""font-size: 50px;"">+</p>","null","html-keyboard-response","334","2.1.0","499612","J=YES, F=NO","zbpw4hbyd4","1","71","57","85","","","","","","","","","","","","","","","",""
"null","audio/beep-329314.mp3","null","audio-keyboard-response","335","2.1.0","501607","J=YES, F=NO","zbpw4hbyd4","1","71","57","85","","","","","","","","","","","","","","","",""
"null","audio/life1.wav","null","audio-keyboard-response","336","2.1.0","502439","J=YES, F=NO","zbpw4hbyd4","1","71","57","85","","","","","","","","","","","","","","","",""
"1112","
          <p id=""word"" style=""font-size: 40px;"">flimch</p>
          <p style=""font-size: 16px;"">J = YES &nbsp;&nbsp;&nbsp; F = NO</p>
        ","f","html-keyboard-response","337","2.1.0","503551","J=YES, F=NO","zbpw4hbyd4","1","71","57","85","","","","","","","","","flimch","life1","pseudoword","pseudoword","f","true","",""
"null","<p style=""font-size: 50px;"">+</p>","null","html-keyboard-response","338","2.1.0","503855","J=YES, F=NO","zbpw4hbyd4","1","71","57","85","","","","","","","","","","","","","","","",""
"null","audio/beep-329314.mp3","null","audio-keyboard-response","339","2.1.0","505786","J=YES, F=NO","zbpw4hbyd4","1","71","57","85","","","","","","","","","","","","","","","",""
"null","audio/heart1.wav","null","audio-keyboard-response","340","2.1.0","506712","J=YES, F=NO","zbpw4hbyd4","1","71","57","85","","","","","","","","","","","","","","","",""
"619","
          <p id=""word"" style=""font-size: 40px;"">touch</p>
          <p style=""font-size: 16px;"">J = YES &nbsp;&nbsp;&nbsp; F = NO</p>
        ","j","html-keyboard-response","341","2.1.0","507332","J=YES, F=NO","zbpw4hbyd4","1","71","57","85","","","","","","","","","touch","heart1","metaphor","experimental","j","true","",""
"null","<p style=""font-size: 50px;"">+</p>","null","html-keyboard-response","342","2.1.0","507635","J=YES, F=NO","zbpw4hbyd4","1","71","57","85","","","","","","","","","","","","","","","",""
"null","audio/beep-329314.mp3","null","audio-keyboard-response","343","2.1.0","509597","J=YES, F=NO","zbpw4hbyd4","1","71","57","85","","","","","","","","","","","","","","","",""
"null","audio/bomb1.wav","null","audio-keyboard-response","344","2.1.0","510244","J=YES, F=NO","zbpw4hbyd4","1","71","57","85","","","","","","","","","","","","","","","",""
"1147","
          <p id=""word"" style=""font-size: 40px;"">clean</p>
          <p style=""font-size: 16px;"">J = YES &nbsp;&nbsp;&nbsp; F = NO</p>
        ","j","html-keyboard-response","345","2.1.0","511392","J=YES, F=NO","zbpw4hbyd4","1","71","57","85","","","","","","","","","clean","bomb1","filler","filler","j","true","",""
"null","<p style=""font-size: 50px;"">+</p>","null","html-keyboard-response","346","2.1.0","511695","J=YES, F=NO","zbpw4hbyd4","1","71","57","85","","","","","","","","","","","","","","","",""
"null","audio/beep-329314.mp3","null","audio-keyboard-response","347","2.1.0","513686","J=YES, F=NO","zbpw4hbyd4","1","71","57","85","","","","","","","","","","","","","","","",""
"null","audio/empire.wav","null","audio-keyboard-response","348","2.1.0","514606","J=YES, F=NO","zbpw4hbyd4","1","71","57","85","","","","","","","","","","","","","","","",""
"905","
          <p id=""word"" style=""font-size: 40px;"">slorby</p>
          <p style=""font-size: 16px;"">J = YES &nbsp;&nbsp;&nbsp; F = NO</p>
        ","f","html-keyboard-response","349","2.1.0","515512","J=YES, F=NO","zbpw4hbyd4","1","71","57","85","","","","","","","","","slorby","empire","pseudoword","pseudoword","f","true","",""
"null","<p style=""font-size: 50px;"">+</p>","null","html-keyboard-response","350","2.1.0","515816","J=YES, F=NO","zbpw4hbyd4","1","71","57","85","","","","","","","","","","","","","","","",""
"null","audio/beep-329314.mp3","null","audio-keyboard-response","351","2.1.0","517773","J=YES, F=NO","zbpw4hbyd4","1","71","57","85","","","","","","","","","","","","","","","",""
"null","audio/prisoner.wav","null","audio-keyboard-response","352","2.1.0","518601","J=YES, F=NO","zbpw4hbyd4","1","71","57","85","","","","","","","","","","","","","","","",""
"1219","
          <p id=""word"" style=""font-size: 40px;"">egotian</p>
          <p style=""font-size: 16px;"">J = YES &nbsp;&nbsp;&nbsp; F = NO</p>
        ","f","html-keyboard-response","353","2.1.0","519822","J=YES, F=NO","zbpw4hbyd4","1","71","57","85","","","","","","","","","egotian","prisoner","pseudoword","pseudoword","f","true","",""
"null","<p style=""font-size: 50px;"">+</p>","null","html-keyboard-response","354","2.1.0","520124","J=YES, F=NO","zbpw4hbyd4","1","71","57","85","","","","","","","","","","","","","","","",""
"null","audio/beep-329314.mp3","null","audio-keyboard-response","355","2.1.0","522046","J=YES, F=NO","zbpw4hbyd4","1","71","57","85","","","","","","","","","","","","","","","",""
"null","audio/seat.wav","null","audio-keyboard-response","356","2.1.0","522962","J=YES, F=NO","zbpw4hbyd4","1","71","57","85","","","","","","","","","","","","","","","",""
"964","
          <p id=""word"" style=""font-size: 40px;"">digest</p>
          <p style=""font-size: 16px;"">J = YES &nbsp;&nbsp;&nbsp; F = NO</p>
        ","j","html-keyboard-response","357","2.1.0","523927","J=YES, F=NO","zbpw4hbyd4","1","71","57","85","","","","","","","","","digest","seat","unrelated","experimental","j","true","",""
"null","<p style=""font-size: 50px;"">+</p>","null","html-keyboard-response","358","2.1.0","524230","J=YES, F=NO","zbpw4hbyd4","1","71","57","85","","","","","","","","","","","","","","","",""
"null","audio/beep-329314.mp3","null","audio-keyboard-response","359","2.1.0","526221","J=YES, F=NO","zbpw4hbyd4","1","71","57","85","","","","","","","","","","","","","","","",""
"null","audio/revenue1.wav","null","audio-keyboard-response","360","2.1.0","527142","J=YES, F=NO","zbpw4hbyd4","1","71","57","85","","","","","","","","","","","","","","","",""
"1143","
          <p id=""word"" style=""font-size: 40px;"">grow</p>
          <p style=""font-size: 16px;"">J = YES &nbsp;&nbsp;&nbsp; F = NO</p>
        ","j","html-keyboard-response","361","2.1.0","528287","J=YES, F=NO","zbpw4hbyd4","1","71","57","85","","","","","","","","","grow","revenue1","metaphor","experimental","j","true","",""
"1452","<p>Excellent! You have finished block 3 of 8.</p>
                     <p>Feel free to take a 30 second break.</p>
                     <p>Press any key when you're ready to continue.</p>","j","html-keyboard-response","362","2.1.0","529742","J=YES, F=NO","zbpw4hbyd4","1","71","57","85","","","","","","","","","","","","","","","",""
"617","<p>Starting main block 4 of 8. Press any key to continue.</p>","j","html-keyboard-response","363","2.1.0","530362","J=YES, F=NO","zbpw4hbyd4","1","71","57","85","","","","","","","","","","","","","","","",""
"null","<p style=""font-size: 50px;"">+</p>","null","html-keyboard-response","364","2.1.0","530665","J=YES, F=NO","zbpw4hbyd4","1","71","57","85","","","","","","","","","","","","","","","",""
"null","audio/beep-329314.mp3","null","audio-keyboard-response","365","2.1.0","532629","J=YES, F=NO","zbpw4hbyd4","1","71","57","85","","","","","","","","","","","","","","","",""
"null","audio/van1.wav","null","audio-keyboard-response","366","2.1.0","533552","J=YES, F=NO","zbpw4hbyd4","1","71","57","85","","","","","","","","","","","","","","","",""
"1016","
          <p id=""word"" style=""font-size: 40px;"">support</p>
          <p style=""font-size: 16px;"">J = YES &nbsp;&nbsp;&nbsp; F = NO</p>
        ","j","html-keyboard-response","367","2.1.0","534569","J=YES, F=NO","zbpw4hbyd4","1","71","57","85","","","","","","","","","support","van1","unrelated","experimental","j","true","",""
"null","<p style=""font-size: 50px;"">+</p>","null","html-keyboard-response","368","2.1.0","534872","J=YES, F=NO","zbpw4hbyd4","1","71","57","85","","","","","","","","","","","","","","","",""
"null","audio/beep-329314.mp3","null","audio-keyboard-response","369","2.1.0","536807","J=YES, F=NO","zbpw4hbyd4","1","71","57","85","","","","","","","","","","","","","","","",""
"null","audio/fence.wav","null","audio-keyboard-response","370","2.1.0","537736","J=YES, F=NO","zbpw4hbyd4","1","71","57","85","","","","","","","","","","","","","","","",""
"837","
          <p id=""word"" style=""font-size: 40px;"">trim</p>
          <p style=""font-size: 16px;"">J = YES &nbsp;&nbsp;&nbsp; F = NO</p>
        ","j","html-keyboard-response","371","2.1.0","538575","J=YES, F=NO","zbpw4hbyd4","1","71","57","85","","","","","","","","","trim","fence","filler","filler","j","true","",""
"null","<p style=""font-size: 50px;"">+</p>","null","html-keyboard-response","372","2.1.0","538878","J=YES, F=NO","zbpw4hbyd4","1","71","57","85","","","","","","","","","","","","","","","",""
"null","audio/beep-329314.mp3","null","audio-keyboard-response","373","2.1.0","540799","J=YES, F=NO","zbpw4hbyd4","1","71","57","85","","","","","","","","","","","","","","","",""
"null","audio/road.wav","null","audio-keyboard-response","374","2.1.0","541542","J=YES, F=NO","zbpw4hbyd4","1","71","57","85","","","","","","","","","","","","","","","",""
"963","
          <p id=""word"" style=""font-size: 40px;"">flood</p>
          <p style=""font-size: 16px;"">J = YES &nbsp;&nbsp;&nbsp; F = NO</p>
        ","j","html-keyboard-response","375","2.1.0","542506","J=YES, F=NO","zbpw4hbyd4","1","71","57","85","","","","","","","","","flood","road","literal","experimental","j","true","",""
"null","<p style=""font-size: 50px;"">+</p>","null","html-keyboard-response","376","2.1.0","542808","J=YES, F=NO","zbpw4hbyd4","1","71","57","85","","","","","","","","","","","","","","","",""
"null","audio/beep-329314.mp3","null","audio-keyboard-response","377","2.1.0","544795","J=YES, F=NO","zbpw4hbyd4","1","71","57","85","","","","","","","","","","","","","","","",""
"null","audio/cinema1.wav","null","audio-keyboard-response","378","2.1.0","545722","J=YES, F=NO","zbpw4hbyd4","1","71","57","85","","","","","","","","","","","","","","","",""
"788","
          <p id=""word"" style=""font-size: 40px;"">murple</p>
          <p style=""font-size: 16px;"">J = YES &nbsp;&nbsp;&nbsp; F = NO</p>
        ","f","html-keyboard-response","379","2.1.0","546511","J=YES, F=NO","zbpw4hbyd4","1","71","57","85","","","","","","","","","murple","cinema1","pseudoword","pseudoword","f","true","",""
"null","<p style=""font-size: 50px;"">+</p>","null","html-keyboard-response","380","2.1.0","546814","J=YES, F=NO","zbpw4hbyd4","1","71","57","85","","","","","","","","","","","","","","","",""
"null","audio/beep-329314.mp3","null","audio-keyboard-response","381","2.1.0","548787","J=YES, F=NO","zbpw4hbyd4","1","71","57","85","","","","","","","","","","","","","","","",""
"null","audio/mind.wav","null","audio-keyboard-response","382","2.1.0","549714","J=YES, F=NO","zbpw4hbyd4","1","71","57","85","","","","","","","","","","","","","","","",""
"841","
          <p id=""word"" style=""font-size: 40px;"">crainate</p>
          <p style=""font-size: 16px;"">J = YES &nbsp;&nbsp;&nbsp; F = NO</p>
        ","f","html-keyboard-response","383","2.1.0","550556","J=YES, F=NO","zbpw4hbyd4","1","71","57","85","","","","","","","","","crainate","mind","pseudoword","pseudoword","f","true","",""
"null","<p style=""font-size: 50px;"">+</p>","null","html-keyboard-response","384","2.1.0","550860","J=YES, F=NO","zbpw4hbyd4","1","71","57","85","","","","","","","","","","","","","","","",""
"null","audio/beep-329314.mp3","null","audio-keyboard-response","385","2.1.0","552782","J=YES, F=NO","zbpw4hbyd4","1","71","57","85","","","","","","","","","","","","","","","",""
"null","audio/gift1.wav","null","audio-keyboard-response","386","2.1.0","553524","J=YES, F=NO","zbpw4hbyd4","1","71","57","85","","","","","","","","","","","","","","","",""
"752","
          <p id=""word"" style=""font-size: 40px;"">give</p>
          <p style=""font-size: 16px;"">J = YES &nbsp;&nbsp;&nbsp; F = NO</p>
        ","j","html-keyboard-response","387","2.1.0","554277","J=YES, F=NO","zbpw4hbyd4","1","71","57","85","","","","","","","","","give","gift1","literal","experimental","j","true","",""
"null","<p style=""font-size: 50px;"">+</p>","null","html-keyboard-response","388","2.1.0","554580","J=YES, F=NO","zbpw4hbyd4","1","71","57","85","","","","","","","","","","","","","","","",""
"null","audio/beep-329314.mp3","null","audio-keyboard-response","389","2.1.0","556499","J=YES, F=NO","zbpw4hbyd4","1","71","57","85","","","","","","","","","","","","","","","",""
"null","audio/meal.wav","null","audio-keyboard-response","390","2.1.0","557238","J=YES, F=NO","zbpw4hbyd4","1","71","57","85","","","","","","","","","","","","","","","",""
"null","
          <p id=""word"" style=""font-size: 40px;"">gallite</p>
          <p style=""font-size: 16px;"">J = YES &nbsp;&nbsp;&nbsp; F = NO</p>
        ","null","html-keyboard-response","391","2.1.0","558741","J=YES, F=NO","zbpw4hbyd4","1","71","57","85","","","","","","","","","gallite","meal","pseudoword","pseudoword","f","false","",""
