"rt","stimulus","response","trial_type","trial_index","plugin_version","time_elapsed","response_mapping","subject_id","list_index","lextale_score","lextale_word_score","lextale_nonword_score","success","timeout","failed_images","failed_audio","failed_video","task","isWord","isDummy","target","prime","prime_type","stimulus_type","correct_response","correct","section","question_order"
"6821","
    <div style=""max-width: 800px; margin: auto; text-align: left;"">
      <h2>STANFORD UNIVERSITY</h2>
      <h3>Research Information Sheet</h3>
      <p><strong>Protocol Director:</strong> Robert Hawkins<br>
      <strong>Protocol Title:</strong> Communication and social cognition in natural audiovisual contexts<br>
      <strong>IRB#:</strong> 77226</p>

      <p><strong>DESCRIPTION:</strong> You are invited to participate in a research study about language and communication. The purpose of the research is to understand how you interact and communicate with other people in naturalistic settings as a fluent English speaker. This research will be conducted through the Prolific platform, including participants from the US, UK, and Canada. If you decide to participate in this research, you will play a communication game in a group with one or more partners.</p>

      <p><strong>TIME INVOLVEMENT:</strong> The task will last the amount of time advertised on Prolific. You are free to withdraw from the study at any time.</p>

      <p><strong>RISKS AND BENEFITS:</strong> You may become frustrated if your partner gets distracted, or experience discomfort if other participants in your group send text that is inappropriate for the task. We ask you to please be respectful of other participants you might be interacting with to mitigate these risks. You may also experience discomfort when being asked to discuss or challenge emotionally salient political beliefs. Study data will be stored securely, in compliance with Stanford University standards, minimizing the risk of confidentiality breach. This study advances our scientific understanding of how people communicate and collaborate in naturalistic settings. This study may lead to further insights about what can go wrong in teamwork, suggest potential interventions to overcome these barriers, and help to develop assistive technologies that collaborate with human partners. We cannot and do not guarantee or promise that you will receive any benefits from this study.</p>

      <p><strong>PAYMENTS:</strong> You will receive payment in the amount advertised on Prolific. If you do not complete this study, you will receive prorated payment based on the time that you have spent. Additionally, you may be eligible for bonus payments as described in the instructions.</p>

      <p><strong>PARTICIPANT’S RIGHTS:</strong> If you have read this form and have decided to participate in this project, please understand your participation is voluntary and you have the right to withdraw your consent or discontinue participation at any time without penalty or loss of benefits to which you are otherwise entitled. The alternative is not to participate. You have the right to refuse to answer particular questions. The results of this research study may be presented at scientific or professional meetings or published in scientific journals. Your individual privacy will be maintained in all published and written data resulting from the study. In accordance with scientific norms, the data from this study may be used or shared with other researchers for future research (after removing personally identifying information) without additional consent from you.</p>

      <p><strong>CONTACT INFORMATION:</strong><br>
      Questions: If you have any questions, concerns or complaints about this research, its procedures, risks and benefits, contact the Protocol Director, Robert Hawkins (<a href=""mailto:rdhawkins@stanford.edu"">rdhawkins@stanford.edu</a>, 217-549-6923).<br>
      Independent Contact: If you are not satisfied with how this study is being conducted, or if you have any concerns, complaints, or general questions about the research or your rights as a participant, please contact the Stanford Institutional Review Board (IRB) to speak to someone independent of the research team at 650-723-2480 or toll free at 1-866-680-2906, or email at <a href=""mailto:irbnon-med@stanford.edu"">irbnon-med@stanford.edu</a>. You can also write to the Stanford IRB, Stanford University, 1705 El Camino Real, Palo Alto, CA 94306.</p>

      <p><strong>Please save or print a copy of this page for your records.</strong></p>
      <p>If you agree to participate in this research, click ""Continue"" below.</p>
    </div>
  ","0","html-button-response","0","2.1.0","6826","J=YES, F=NO","ze8w5mnr0a","0","85","85","85","","","","","","","","","","","","","","","",""
"8862","
    <div style=""max-width: 800px; margin: auto; text-align: left;"">
      <h2>Welcome!</h2>
      <p>Thank you for participating in this study. The experiment consists of three parts:</p>
      <ol>
        <li>An English vocabulary test</li>
        <li>A main task in which you will hear and see words, and decide whether the written word is a real English word</li>
        <li>A brief survey about your background</li>
      </ol>
      <p>Each part will be introduced before it begins.</p>
      <p>Please make sure you are in a quiet environment and can hear audio clearly for the final task.</p>
      <p style=""margin-top: 2em;"">Press any key to begin.</p>
    </div>
  ","a","html-keyboard-response","1","2.1.0","15690","J=YES, F=NO","ze8w5mnr0a","0","85","85","85","","","","","","","","","","","","","","","",""
"","","","preload","2","2.1.0","17405","J=YES, F=NO","ze8w5mnr0a","0","85","85","85","true","false","[]","[]","[]","","","","","","","","","","",""
"50389","
    <div style=""max-width: 800px; margin: auto; text-align: left;"">
      <h2>Part 1: Vocabulary Test</h2>
      <p>You will now complete the first part of the study: a short English vocabulary test.</p>
      <p>This test is called <strong>LexTALE</strong> and helps us get a general sense of your English proficiency.</p>
      <p style=""margin-top: 2em;"">Press any key to continue.</p>
    </div>
  ","a","html-keyboard-response","3","2.1.0","67795","J=YES, F=NO","ze8w5mnr0a","0","85","85","85","","","","","","","","","","","","","","","",""
"6615","
    <div style=""max-width: 800px; margin: auto; text-align: left;"">
      <h2>LexTALE Vocabulary Test</h2>
      <p>In this test, you will see a series of letter strings—one at a time.</p>
      <p>Your task is to decide whether each string is a real English word.</p>
      <p><strong>Key responses:</strong></p>
      <ul>
        <li><strong>J</strong> = YES (real English word)</li>
        <li><strong>F</strong> = NO (not a real English word)</li>
      </ul>
      <p>There is no time limit, but please try to be accurate.</p>
      <p style=""margin-top: 2em;"">Press any key to begin.</p>
    </div>
  ","j","html-keyboard-response","4","2.1.0","74412","J=YES, F=NO","ze8w5mnr0a","0","85","85","85","","","","","","","","","","","","","","","",""
"20070","
  <p style=""font-size: 40px;"">platery</p>
  <p style=""font-size: 16px;"">J = YES &nbsp;&nbsp;&nbsp; F = NO</p>
","j","html-keyboard-response","5","2.1.0","94482","J=YES, F=NO","ze8w5mnr0a","0","85","85","85","","","","","","lextale","false","true","","","","","","","",""
"1224","
  <p style=""font-size: 40px;"">denial</p>
  <p style=""font-size: 16px;"">J = YES &nbsp;&nbsp;&nbsp; F = NO</p>
","j","html-keyboard-response","6","2.1.0","95707","J=YES, F=NO","ze8w5mnr0a","0","85","85","85","","","","","","lextale","true","true","","","","","","","",""
"1760","
  <p style=""font-size: 40px;"">marrit</p>
  <p style=""font-size: 16px;"">J = YES &nbsp;&nbsp;&nbsp; F = NO</p>
","f","html-keyboard-response","7","2.1.0","97468","J=YES, F=NO","ze8w5mnr0a","0","85","85","85","","","","","","lextale","false","true","","","","","","","",""
"2117","
  <p style=""font-size: 40px;"">bottle</p>
  <p style=""font-size: 16px;"">J = YES &nbsp;&nbsp;&nbsp; F = NO</p>
","j","html-keyboard-response","8","2.1.0","99587","J=YES, F=NO","ze8w5mnr0a","0","85","85","85","","","","","","lextale","true","false","","","","","","","",""
"16520","
  <p style=""font-size: 40px;"">birst</p>
  <p style=""font-size: 16px;"">J = YES &nbsp;&nbsp;&nbsp; F = NO</p>
","f","html-keyboard-response","9","2.1.0","116108","J=YES, F=NO","ze8w5mnr0a","0","85","85","85","","","","","","lextale","false","false","","","","","","","",""
"1590","
  <p style=""font-size: 40px;"">envy</p>
  <p style=""font-size: 16px;"">J = YES &nbsp;&nbsp;&nbsp; F = NO</p>
","j","html-keyboard-response","10","2.1.0","117700","J=YES, F=NO","ze8w5mnr0a","0","85","85","85","","","","","","lextale","true","false","","","","","","","",""
"1542","
  <p style=""font-size: 40px;"">brang</p>
  <p style=""font-size: 16px;"">J = YES &nbsp;&nbsp;&nbsp; F = NO</p>
","f","html-keyboard-response","11","2.1.0","119243","J=YES, F=NO","ze8w5mnr0a","0","85","85","85","","","","","","lextale","false","false","","","","","","","",""
"879","
  <p style=""font-size: 40px;"">huge</p>
  <p style=""font-size: 16px;"">J = YES &nbsp;&nbsp;&nbsp; F = NO</p>
","j","html-keyboard-response","12","2.1.0","120123","J=YES, F=NO","ze8w5mnr0a","0","85","85","85","","","","","","lextale","true","false","","","","","","","",""
"3000","
  <p style=""font-size: 40px;"">plove</p>
  <p style=""font-size: 16px;"">J = YES &nbsp;&nbsp;&nbsp; F = NO</p>
","f","html-keyboard-response","13","2.1.0","123124","J=YES, F=NO","ze8w5mnr0a","0","85","85","85","","","","","","lextale","false","false","","","","","","","",""
"863","
  <p style=""font-size: 40px;"">border</p>
  <p style=""font-size: 16px;"">J = YES &nbsp;&nbsp;&nbsp; F = NO</p>
","j","html-keyboard-response","14","2.1.0","123988","J=YES, F=NO","ze8w5mnr0a","0","85","85","85","","","","","","lextale","true","false","","","","","","","",""
"1703","
  <p style=""font-size: 40px;"">flimsy</p>
  <p style=""font-size: 16px;"">J = YES &nbsp;&nbsp;&nbsp; F = NO</p>
","j","html-keyboard-response","15","2.1.0","125692","J=YES, F=NO","ze8w5mnr0a","0","85","85","85","","","","","","lextale","true","false","","","","","","","",""
"758","
  <p style=""font-size: 40px;"">drain</p>
  <p style=""font-size: 16px;"">J = YES &nbsp;&nbsp;&nbsp; F = NO</p>
","j","html-keyboard-response","16","2.1.0","126451","J=YES, F=NO","ze8w5mnr0a","0","85","85","85","","","","","","lextale","true","false","","","","","","","",""
"1030","
  <p style=""font-size: 40px;"">twindle</p>
  <p style=""font-size: 16px;"">J = YES &nbsp;&nbsp;&nbsp; F = NO</p>
","f","html-keyboard-response","17","2.1.0","127482","J=YES, F=NO","ze8w5mnr0a","0","85","85","85","","","","","","lextale","false","false","","","","","","","",""
"880","
  <p style=""font-size: 40px;"">propose</p>
  <p style=""font-size: 16px;"">J = YES &nbsp;&nbsp;&nbsp; F = NO</p>
","j","html-keyboard-response","18","2.1.0","128362","J=YES, F=NO","ze8w5mnr0a","0","85","85","85","","","","","","lextale","true","false","","","","","","","",""
"1480","
  <p style=""font-size: 40px;"">forlay</p>
  <p style=""font-size: 16px;"">J = YES &nbsp;&nbsp;&nbsp; F = NO</p>
","j","html-keyboard-response","19","2.1.0","129843","J=YES, F=NO","ze8w5mnr0a","0","85","85","85","","","","","","lextale","false","false","","","","","","","",""
"16207","
  <p style=""font-size: 40px;"">tenant</p>
  <p style=""font-size: 16px;"">J = YES &nbsp;&nbsp;&nbsp; F = NO</p>
","j","html-keyboard-response","20","2.1.0","146051","J=YES, F=NO","ze8w5mnr0a","0","85","85","85","","","","","","lextale","true","false","","","","","","","",""
"1224","
  <p style=""font-size: 40px;"">strain</p>
  <p style=""font-size: 16px;"">J = YES &nbsp;&nbsp;&nbsp; F = NO</p>
","j","html-keyboard-response","21","2.1.0","147275","J=YES, F=NO","ze8w5mnr0a","0","85","85","85","","","","","","lextale","true","false","","","","","","","",""
"983","
  <p style=""font-size: 40px;"">holster</p>
  <p style=""font-size: 16px;"">J = YES &nbsp;&nbsp;&nbsp; F = NO</p>
","j","html-keyboard-response","22","2.1.0","148259","J=YES, F=NO","ze8w5mnr0a","0","85","85","85","","","","","","lextale","true","false","","","","","","","",""
"1720","
  <p style=""font-size: 40px;"">hinder</p>
  <p style=""font-size: 16px;"">J = YES &nbsp;&nbsp;&nbsp; F = NO</p>
","j","html-keyboard-response","23","2.1.0","149980","J=YES, F=NO","ze8w5mnr0a","0","85","85","85","","","","","","lextale","true","false","","","","","","","",""
"822","
  <p style=""font-size: 40px;"">swindle</p>
  <p style=""font-size: 16px;"">J = YES &nbsp;&nbsp;&nbsp; F = NO</p>
","j","html-keyboard-response","24","2.1.0","150803","J=YES, F=NO","ze8w5mnr0a","0","85","85","85","","","","","","lextale","true","false","","","","","","","",""
"951","
  <p style=""font-size: 40px;"">nuder</p>
  <p style=""font-size: 16px;"">J = YES &nbsp;&nbsp;&nbsp; F = NO</p>
","f","html-keyboard-response","25","2.1.0","151754","J=YES, F=NO","ze8w5mnr0a","0","85","85","85","","","","","","lextale","false","false","","","","","","","",""
"640","
  <p style=""font-size: 40px;"">pillow</p>
  <p style=""font-size: 16px;"">J = YES &nbsp;&nbsp;&nbsp; F = NO</p>
","j","html-keyboard-response","26","2.1.0","152395","J=YES, F=NO","ze8w5mnr0a","0","85","85","85","","","","","","lextale","true","false","","","","","","","",""
"1376","
  <p style=""font-size: 40px;"">shumble</p>
  <p style=""font-size: 16px;"">J = YES &nbsp;&nbsp;&nbsp; F = NO</p>
","f","html-keyboard-response","27","2.1.0","153772","J=YES, F=NO","ze8w5mnr0a","0","85","85","85","","","","","","lextale","false","false","","","","","","","",""
"655","
  <p style=""font-size: 40px;"">thirst</p>
  <p style=""font-size: 16px;"">J = YES &nbsp;&nbsp;&nbsp; F = NO</p>
","j","html-keyboard-response","28","2.1.0","154427","J=YES, F=NO","ze8w5mnr0a","0","85","85","85","","","","","","lextale","true","false","","","","","","","",""
"1879","
  <p style=""font-size: 40px;"">unsail</p>
  <p style=""font-size: 16px;"">J = YES &nbsp;&nbsp;&nbsp; F = NO</p>
","f","html-keyboard-response","29","2.1.0","156307","J=YES, F=NO","ze8w5mnr0a","0","85","85","85","","","","","","lextale","false","false","","","","","","","",""
"551","
  <p style=""font-size: 40px;"">rifle</p>
  <p style=""font-size: 16px;"">J = YES &nbsp;&nbsp;&nbsp; F = NO</p>
","j","html-keyboard-response","30","2.1.0","156859","J=YES, F=NO","ze8w5mnr0a","0","85","85","85","","","","","","lextale","true","false","","","","","","","",""
"649","
  <p style=""font-size: 40px;"">mush</p>
  <p style=""font-size: 16px;"">J = YES &nbsp;&nbsp;&nbsp; F = NO</p>
","j","html-keyboard-response","31","2.1.0","157509","J=YES, F=NO","ze8w5mnr0a","0","85","85","85","","","","","","lextale","false","false","","","","","","","",""
"597","
  <p style=""font-size: 40px;"">drench</p>
  <p style=""font-size: 16px;"">J = YES &nbsp;&nbsp;&nbsp; F = NO</p>
","j","html-keyboard-response","32","2.1.0","158107","J=YES, F=NO","ze8w5mnr0a","0","85","85","85","","","","","","lextale","true","false","","","","","","","",""
"1287","
  <p style=""font-size: 40px;"">snirt</p>
  <p style=""font-size: 16px;"">J = YES &nbsp;&nbsp;&nbsp; F = NO</p>
","f","html-keyboard-response","33","2.1.0","159396","J=YES, F=NO","ze8w5mnr0a","0","85","85","85","","","","","","lextale","false","false","","","","","","","",""
"1206","
  <p style=""font-size: 40px;"">bitter</p>
  <p style=""font-size: 16px;"">J = YES &nbsp;&nbsp;&nbsp; F = NO</p>
","j","html-keyboard-response","34","2.1.0","160602","J=YES, F=NO","ze8w5mnr0a","0","85","85","85","","","","","","lextale","true","false","","","","","","","",""
"759","
  <p style=""font-size: 40px;"">pliff</p>
  <p style=""font-size: 16px;"">J = YES &nbsp;&nbsp;&nbsp; F = NO</p>
","f","html-keyboard-response","35","2.1.0","161361","J=YES, F=NO","ze8w5mnr0a","0","85","85","85","","","","","","lextale","false","false","","","","","","","",""
"513","
  <p style=""font-size: 40px;"">tablet</p>
  <p style=""font-size: 16px;"">J = YES &nbsp;&nbsp;&nbsp; F = NO</p>
","j","html-keyboard-response","36","2.1.0","161874","J=YES, F=NO","ze8w5mnr0a","0","85","85","85","","","","","","lextale","true","false","","","","","","","",""
"632","
  <p style=""font-size: 40px;"">glimmer</p>
  <p style=""font-size: 16px;"">J = YES &nbsp;&nbsp;&nbsp; F = NO</p>
","j","html-keyboard-response","37","2.1.0","162507","J=YES, F=NO","ze8w5mnr0a","0","85","85","85","","","","","","lextale","true","false","","","","","","","",""
"1558","
  <p style=""font-size: 40px;"">slink</p>
  <p style=""font-size: 16px;"">J = YES &nbsp;&nbsp;&nbsp; F = NO</p>
","j","html-keyboard-response","38","2.1.0","164065","J=YES, F=NO","ze8w5mnr0a","0","85","85","85","","","","","","lextale","true","false","","","","","","","",""
"537","
  <p style=""font-size: 40px;"">clever</p>
  <p style=""font-size: 16px;"">J = YES &nbsp;&nbsp;&nbsp; F = NO</p>
","j","html-keyboard-response","39","2.1.0","164603","J=YES, F=NO","ze8w5mnr0a","0","85","85","85","","","","","","lextale","true","false","","","","","","","",""
"791","
  <p style=""font-size: 40px;"">grum</p>
  <p style=""font-size: 16px;"">J = YES &nbsp;&nbsp;&nbsp; F = NO</p>
","f","html-keyboard-response","40","2.1.0","165395","J=YES, F=NO","ze8w5mnr0a","0","85","85","85","","","","","","lextale","false","false","","","","","","","",""
"568","
  <p style=""font-size: 40px;"">string</p>
  <p style=""font-size: 16px;"">J = YES &nbsp;&nbsp;&nbsp; F = NO</p>
","j","html-keyboard-response","41","2.1.0","165964","J=YES, F=NO","ze8w5mnr0a","0","85","85","85","","","","","","lextale","true","false","","","","","","","",""
"1222","
  <p style=""font-size: 40px;"">plim</p>
  <p style=""font-size: 16px;"">J = YES &nbsp;&nbsp;&nbsp; F = NO</p>
","f","html-keyboard-response","42","2.1.0","167186","J=YES, F=NO","ze8w5mnr0a","0","85","85","85","","","","","","lextale","false","false","","","","","","","",""
"649","
  <p style=""font-size: 40px;"">cable</p>
  <p style=""font-size: 16px;"">J = YES &nbsp;&nbsp;&nbsp; F = NO</p>
","j","html-keyboard-response","43","2.1.0","167835","J=YES, F=NO","ze8w5mnr0a","0","85","85","85","","","","","","lextale","true","false","","","","","","","",""
"1200","
  <p style=""font-size: 40px;"">shrivel</p>
  <p style=""font-size: 16px;"">J = YES &nbsp;&nbsp;&nbsp; F = NO</p>
","j","html-keyboard-response","44","2.1.0","169036","J=YES, F=NO","ze8w5mnr0a","0","85","85","85","","","","","","lextale","true","false","","","","","","","",""
"870","
  <p style=""font-size: 40px;"">tarnish</p>
  <p style=""font-size: 16px;"">J = YES &nbsp;&nbsp;&nbsp; F = NO</p>
","j","html-keyboard-response","45","2.1.0","169907","J=YES, F=NO","ze8w5mnr0a","0","85","85","85","","","","","","lextale","true","false","","","","","","","",""
"768","
  <p style=""font-size: 40px;"">blim</p>
  <p style=""font-size: 16px;"">J = YES &nbsp;&nbsp;&nbsp; F = NO</p>
","f","html-keyboard-response","46","2.1.0","170676","J=YES, F=NO","ze8w5mnr0a","0","85","85","85","","","","","","lextale","false","false","","","","","","","",""
"678","
  <p style=""font-size: 40px;"">stifle</p>
  <p style=""font-size: 16px;"">J = YES &nbsp;&nbsp;&nbsp; F = NO</p>
","j","html-keyboard-response","47","2.1.0","171355","J=YES, F=NO","ze8w5mnr0a","0","85","85","85","","","","","","lextale","true","false","","","","","","","",""
"711","
  <p style=""font-size: 40px;"">bint</p>
  <p style=""font-size: 16px;"">J = YES &nbsp;&nbsp;&nbsp; F = NO</p>
","f","html-keyboard-response","48","2.1.0","172067","J=YES, F=NO","ze8w5mnr0a","0","85","85","85","","","","","","lextale","false","false","","","","","","","",""
"976","
  <p style=""font-size: 40px;"">purple</p>
  <p style=""font-size: 16px;"">J = YES &nbsp;&nbsp;&nbsp; F = NO</p>
","j","html-keyboard-response","49","2.1.0","173043","J=YES, F=NO","ze8w5mnr0a","0","85","85","85","","","","","","lextale","true","false","","","","","","","",""
"2215","
  <p style=""font-size: 40px;"">wriggle</p>
  <p style=""font-size: 16px;"">J = YES &nbsp;&nbsp;&nbsp; F = NO</p>
","j","html-keyboard-response","50","2.1.0","175260","J=YES, F=NO","ze8w5mnr0a","0","85","85","85","","","","","","lextale","true","false","","","","","","","",""
"823","
  <p style=""font-size: 40px;"">mangle</p>
  <p style=""font-size: 16px;"">J = YES &nbsp;&nbsp;&nbsp; F = NO</p>
","j","html-keyboard-response","51","2.1.0","176084","J=YES, F=NO","ze8w5mnr0a","0","85","85","85","","","","","","lextale","true","false","","","","","","","",""
"695","
  <p style=""font-size: 40px;"">shramp</p>
  <p style=""font-size: 16px;"">J = YES &nbsp;&nbsp;&nbsp; F = NO</p>
","f","html-keyboard-response","52","2.1.0","176780","J=YES, F=NO","ze8w5mnr0a","0","85","85","85","","","","","","lextale","false","false","","","","","","","",""
"646","
  <p style=""font-size: 40px;"">flirt</p>
  <p style=""font-size: 16px;"">J = YES &nbsp;&nbsp;&nbsp; F = NO</p>
","j","html-keyboard-response","53","2.1.0","177427","J=YES, F=NO","ze8w5mnr0a","0","85","85","85","","","","","","lextale","true","false","","","","","","","",""
"768","
  <p style=""font-size: 40px;"">frip</p>
  <p style=""font-size: 16px;"">J = YES &nbsp;&nbsp;&nbsp; F = NO</p>
","f","html-keyboard-response","54","2.1.0","178196","J=YES, F=NO","ze8w5mnr0a","0","85","85","85","","","","","","lextale","false","false","","","","","","","",""
"1150","
  <p style=""font-size: 40px;"">tangle</p>
  <p style=""font-size: 16px;"">J = YES &nbsp;&nbsp;&nbsp; F = NO</p>
","j","html-keyboard-response","55","2.1.0","179347","J=YES, F=NO","ze8w5mnr0a","0","85","85","85","","","","","","lextale","true","false","","","","","","","",""
"703","
  <p style=""font-size: 40px;"">crumble</p>
  <p style=""font-size: 16px;"">J = YES &nbsp;&nbsp;&nbsp; F = NO</p>
","j","html-keyboard-response","56","2.1.0","180051","J=YES, F=NO","ze8w5mnr0a","0","85","85","85","","","","","","lextale","true","false","","","","","","","",""
"999","
  <p style=""font-size: 40px;"">wrinkle</p>
  <p style=""font-size: 16px;"">J = YES &nbsp;&nbsp;&nbsp; F = NO</p>
","j","html-keyboard-response","57","2.1.0","181051","J=YES, F=NO","ze8w5mnr0a","0","85","85","85","","","","","","lextale","true","false","","","","","","","",""
"945","
  <p style=""font-size: 40px;"">slumb</p>
  <p style=""font-size: 16px;"">J = YES &nbsp;&nbsp;&nbsp; F = NO</p>
","f","html-keyboard-response","58","2.1.0","181996","J=YES, F=NO","ze8w5mnr0a","0","85","85","85","","","","","","lextale","false","false","","","","","","","",""
"694","
  <p style=""font-size: 40px;"">jungle</p>
  <p style=""font-size: 16px;"">J = YES &nbsp;&nbsp;&nbsp; F = NO</p>
","j","html-keyboard-response","59","2.1.0","182691","J=YES, F=NO","ze8w5mnr0a","0","85","85","85","","","","","","lextale","true","false","","","","","","","",""
"777","
  <p style=""font-size: 40px;"">frolick</p>
  <p style=""font-size: 16px;"">J = YES &nbsp;&nbsp;&nbsp; F = NO</p>
","f","html-keyboard-response","60","2.1.0","183468","J=YES, F=NO","ze8w5mnr0a","0","85","85","85","","","","","","lextale","false","false","","","","","","","",""
"1629","
      <h2>LexTALE Test Completed</h2>
      <p>Your LexTALE vocabulary score is: <strong>85%</strong></p>
      <p>Press any key to continue.</p>
    ","f","html-keyboard-response","61","2.1.0","185099","J=YES, F=NO","ze8w5mnr0a","0","85","85","85","","","","","","","","","","","","","","","",""
"19605","
    <div style=""max-width: 800px; margin: auto; text-align: left;"">
      <h2>Break Time</h2>
      <p>You have completed the first part of the study.</p>
      <p>You may take a short <strong>30-second break</strong> before continuing.</p>
      <p>When you’re ready, press any key to continue to the final task.</p>
    </div>
  ","f","html-keyboard-response","62","2.1.0","204706","J=YES, F=NO","ze8w5mnr0a","0","85","85","85","","","","","","","","","","","","","","","",""
"17730","
    <div style=""max-width: 800px; margin: auto; text-align: left;"">
      <h2>Part 2: Lexical Decision Task</h2>
      <p>You will now begin the second part of the study.</p>
      <p>Each trial will follow this sequence:</p>
      <ul>
        <li>A fixation cross (+) appears at the center of the screen.</li>
        <li>You will hear a short beep followed by a spoken word.</li>
        <li>A written word will appear briefly on the screen.</li>
      </ul>
      <p>Your task is to judge whether the <strong>written word</strong> is a real English word.</p>
      <p style=""margin-top: 1em;""><strong>Key responses:</strong></p>
      <ul>
        <li><strong>J</strong> = YES (real English word)</li>
        <li><strong>F</strong> = NO (not a real English word)</li>
      </ul>
      <p>Please respond as quickly and accurately as you can.</p>
      <p style=""margin-top: 2em;"">Press any key to continue.</p>
    </div>
  ","g","html-keyboard-response","63","2.1.0","222436","J=YES, F=NO","ze8w5mnr0a","0","85","85","85","","","","","","","","","","","","","","","",""
"6718","
    <div style=""max-width: 800px; margin: auto; text-align: left;"">
      <h2>Before You Begin</h2>
      <p>Make sure your sound is turned on.</p>
      <p>You will hear audio during each trial, but your decision should be based only on the <strong>written word</strong> you see on the screen.</p>
      <p><strong>Reminder:</strong></p>
      <ul>
        <li><strong>J</strong> = YES (real English word)</li>
        <li><strong>F</strong> = NO (not a real English word)</li>
      </ul>
      <p style=""margin-top: 2em;"">Press any key when you are ready to begin.</p>
    </div>
  ","j","html-keyboard-response","64","2.1.0","229155","J=YES, F=NO","ze8w5mnr0a","0","85","85","85","","","","","","","","","","","","","","","",""
"2711","
    <div style=""max-width: 800px; margin: auto; text-align: left;"">
      <h2>Part 2: Practice Trials</h2>
      <p>You will now complete a few <strong>practice trials</strong> to get familiar with the task.</p>
      <p>These trials are <strong>not scored</strong> and are only to help you get used to the format.</p>
      <p style=""margin-top: 2em;"">Press any key to begin.</p>
    </div>
  ","j","html-keyboard-response","65","2.1.0","231868","J=YES, F=NO","ze8w5mnr0a","0","85","85","85","","","","","","","","","","","","","","","",""
"1543","<p>Starting practice block 1 of 2. Press any key to continue.</p>","j","html-keyboard-response","66","2.1.0","233411","J=YES, F=NO","ze8w5mnr0a","0","85","85","85","","","","","","","","","","","","","","","",""
"null","<p style=""font-size: 50px;"">+</p>","null","html-keyboard-response","67","2.1.0","233725","J=YES, F=NO","ze8w5mnr0a","0","85","85","85","","","","","","","","","","","","","","","",""
"null","audio/beep-329314.mp3","null","audio-keyboard-response","68","2.1.0","235971","J=YES, F=NO","ze8w5mnr0a","0","85","85","85","","","","","","","","","","","","","","","",""
"null","audio/age1.wav","null","audio-keyboard-response","69","2.1.0","236521","J=YES, F=NO","ze8w5mnr0a","0","85","85","85","","","","","","","","","","","","","","","",""
"null","
          <p id=""word"" style=""font-size: 40px;"">bake</p>
          <p style=""font-size: 16px;"">J = YES &nbsp;&nbsp;&nbsp; F = NO</p>
        ","null","html-keyboard-response","70","2.1.0","238036","J=YES, F=NO","ze8w5mnr0a","0","85","85","85","","","","","","","","","bake","age1","filler","filler","j","false","",""
"null","<p style=""font-size: 50px;"">+</p>","null","html-keyboard-response","71","2.1.0","238347","J=YES, F=NO","ze8w5mnr0a","0","85","85","85","","","","","","","","","","","","","","","",""
"null","audio/beep-329314.mp3","null","audio-keyboard-response","72","2.1.0","239871","J=YES, F=NO","ze8w5mnr0a","0","85","85","85","","","","","","","","","","","","","","","",""
"null","audio/sand.wav","null","audio-keyboard-response","73","2.1.0","240520","J=YES, F=NO","ze8w5mnr0a","0","85","85","85","","","","","","","","","","","","","","","",""
"null","
          <p id=""word"" style=""font-size: 40px;"">proted</p>
          <p style=""font-size: 16px;"">J = YES &nbsp;&nbsp;&nbsp; F = NO</p>
        ","null","html-keyboard-response","74","2.1.0","242027","J=YES, F=NO","ze8w5mnr0a","0","85","85","85","","","","","","","","","proted","sand","pseudoword","pseudoword","f","false","",""
"null","<p style=""font-size: 50px;"">+</p>","null","html-keyboard-response","75","2.1.0","242338","J=YES, F=NO","ze8w5mnr0a","0","85","85","85","","","","","","","","","","","","","","","",""
"null","audio/beep-329314.mp3","null","audio-keyboard-response","76","2.1.0","243870","J=YES, F=NO","ze8w5mnr0a","0","85","85","85","","","","","","","","","","","","","","","",""
"null","audio/arm.wav","null","audio-keyboard-response","77","2.1.0","244420","J=YES, F=NO","ze8w5mnr0a","0","85","85","85","","","","","","","","","","","","","","","",""
"null","
          <p id=""word"" style=""font-size: 40px;"">fold</p>
          <p style=""font-size: 16px;"">J = YES &nbsp;&nbsp;&nbsp; F = NO</p>
        ","null","html-keyboard-response","78","2.1.0","245927","J=YES, F=NO","ze8w5mnr0a","0","85","85","85","","","","","","","","","fold","arm","filler","filler","j","false","",""
"null","<p style=""font-size: 50px;"">+</p>","null","html-keyboard-response","79","2.1.0","246239","J=YES, F=NO","ze8w5mnr0a","0","85","85","85","","","","","","","","","","","","","","","",""
"null","audio/beep-329314.mp3","null","audio-keyboard-response","80","2.1.0","247771","J=YES, F=NO","ze8w5mnr0a","0","85","85","85","","","","","","","","","","","","","","","",""
"null","audio/battle1.wav","null","audio-keyboard-response","81","2.1.0","248279","J=YES, F=NO","ze8w5mnr0a","0","85","85","85","","","","","","","","","","","","","","","",""
"562","
          <p id=""word"" style=""font-size: 40px;"">boil</p>
          <p style=""font-size: 16px;"">J = YES &nbsp;&nbsp;&nbsp; F = NO</p>
        ","j","html-keyboard-response","82","2.1.0","248842","J=YES, F=NO","ze8w5mnr0a","0","85","85","85","","","","","","","","","boil","battle1","filler","filler","j","true","",""
"null","<p style=""font-size: 50px;"">+</p>","null","html-keyboard-response","83","2.1.0","249143","J=YES, F=NO","ze8w5mnr0a","0","85","85","85","","","","","","","","","","","","","","","",""
"null","audio/beep-329314.mp3","null","audio-keyboard-response","84","2.1.0","250671","J=YES, F=NO","ze8w5mnr0a","0","85","85","85","","","","","","","","","","","","","","","",""
"null","audio/road.wav","null","audio-keyboard-response","85","2.1.0","251100","J=YES, F=NO","ze8w5mnr0a","0","85","85","85","","","","","","","","","","","","","","","",""
"758","
          <p id=""word"" style=""font-size: 40px;"">wappings</p>
          <p style=""font-size: 16px;"">J = YES &nbsp;&nbsp;&nbsp; F = NO</p>
        ","f","html-keyboard-response","86","2.1.0","251858","J=YES, F=NO","ze8w5mnr0a","0","85","85","85","","","","","","","","","wappings","road","pseudoword","pseudoword","f","true","",""
"null","<p style=""font-size: 50px;"">+</p>","null","html-keyboard-response","87","2.1.0","252174","J=YES, F=NO","ze8w5mnr0a","0","85","85","85","","","","","","","","","","","","","","","",""
"null","audio/beep-329314.mp3","null","audio-keyboard-response","88","2.1.0","253710","J=YES, F=NO","ze8w5mnr0a","0","85","85","85","","","","","","","","","","","","","","","",""
"null","audio/neck.wav","null","audio-keyboard-response","89","2.1.0","254261","J=YES, F=NO","ze8w5mnr0a","0","85","85","85","","","","","","","","","","","","","","","",""
"716","
          <p id=""word"" style=""font-size: 40px;"">werling</p>
          <p style=""font-size: 16px;"">J = YES &nbsp;&nbsp;&nbsp; F = NO</p>
        ","f","html-keyboard-response","90","2.1.0","254978","J=YES, F=NO","ze8w5mnr0a","0","85","85","85","","","","","","","","","werling","neck","pseudoword","pseudoword","f","true","",""
"null","<p style=""font-size: 50px;"">+</p>","null","html-keyboard-response","91","2.1.0","255294","J=YES, F=NO","ze8w5mnr0a","0","85","85","85","","","","","","","","","","","","","","","",""
"null","audio/beep-329314.mp3","null","audio-keyboard-response","92","2.1.0","256831","J=YES, F=NO","ze8w5mnr0a","0","85","85","85","","","","","","","","","","","","","","","",""
"null","audio/scar.wav","null","audio-keyboard-response","93","2.1.0","257460","J=YES, F=NO","ze8w5mnr0a","0","85","85","85","","","","","","","","","","","","","","","",""
"830","
          <p id=""word"" style=""font-size: 40px;"">adelineate</p>
          <p style=""font-size: 16px;"">J = YES &nbsp;&nbsp;&nbsp; F = NO</p>
        ","f","html-keyboard-response","94","2.1.0","258291","J=YES, F=NO","ze8w5mnr0a","0","85","85","85","","","","","","","","","adelineate","scar","pseudoword","pseudoword","f","true","",""
"null","<p style=""font-size: 50px;"">+</p>","null","html-keyboard-response","95","2.1.0","258607","J=YES, F=NO","ze8w5mnr0a","0","85","85","85","","","","","","","","","","","","","","","",""
"null","audio/beep-329314.mp3","null","audio-keyboard-response","96","2.1.0","260131","J=YES, F=NO","ze8w5mnr0a","0","85","85","85","","","","","","","","","","","","","","","",""
"null","audio/breath.wav","null","audio-keyboard-response","97","2.1.0","260701","J=YES, F=NO","ze8w5mnr0a","0","85","85","85","","","","","","","","","","","","","","","",""
"445","
          <p id=""word"" style=""font-size: 40px;"">pack</p>
          <p style=""font-size: 16px;"">J = YES &nbsp;&nbsp;&nbsp; F = NO</p>
        ","j","html-keyboard-response","98","2.1.0","261147","J=YES, F=NO","ze8w5mnr0a","0","85","85","85","","","","","","","","","pack","breath","filler","filler","j","true","",""
"null","<p style=""font-size: 50px;"">+</p>","null","html-keyboard-response","99","2.1.0","261458","J=YES, F=NO","ze8w5mnr0a","0","85","85","85","","","","","","","","","","","","","","","",""
"null","audio/beep-329314.mp3","null","audio-keyboard-response","100","2.1.0","262990","J=YES, F=NO","ze8w5mnr0a","0","85","85","85","","","","","","","","","","","","","","","",""
"null","audio/kettle1.wav","null","audio-keyboard-response","101","2.1.0","263501","J=YES, F=NO","ze8w5mnr0a","0","85","85","85","","","","","","","","","","","","","","","",""
"null","
          <p id=""word"" style=""font-size: 40px;"">wrap</p>
          <p style=""font-size: 16px;"">J = YES &nbsp;&nbsp;&nbsp; F = NO</p>
        ","null","html-keyboard-response","102","2.1.0","265007","J=YES, F=NO","ze8w5mnr0a","0","85","85","85","","","","","","","","","wrap","kettle1","filler","filler","j","false","",""
"null","<p style=""font-size: 50px;"">+</p>","null","html-keyboard-response","103","2.1.0","265308","J=YES, F=NO","ze8w5mnr0a","0","85","85","85","","","","","","","","","","","","","","","",""
"null","audio/beep-329314.mp3","null","audio-keyboard-response","104","2.1.0","266831","J=YES, F=NO","ze8w5mnr0a","0","85","85","85","","","","","","","","","","","","","","","",""
"null","audio/burden.wav","null","audio-keyboard-response","105","2.1.0","267339","J=YES, F=NO","ze8w5mnr0a","0","85","85","85","","","","","","","","","","","","","","","",""
"null","
          <p id=""word"" style=""font-size: 40px;"">whotth</p>
          <p style=""font-size: 16px;"">J = YES &nbsp;&nbsp;&nbsp; F = NO</p>
        ","null","html-keyboard-response","106","2.1.0","268840","J=YES, F=NO","ze8w5mnr0a","0","85","85","85","","","","","","","","","whotth","burden","pseudoword","pseudoword","f","false","",""
"null","<p style=""font-size: 50px;"">+</p>","null","html-keyboard-response","107","2.1.0","269155","J=YES, F=NO","ze8w5mnr0a","0","85","85","85","","","","","","","","","","","","","","","",""
"null","audio/beep-329314.mp3","null","audio-keyboard-response","108","2.1.0","270692","J=YES, F=NO","ze8w5mnr0a","0","85","85","85","","","","","","","","","","","","","","","",""
"null","audio/tomato.wav","null","audio-keyboard-response","109","2.1.0","271360","J=YES, F=NO","ze8w5mnr0a","0","85","85","85","","","","","","","","","","","","","","","",""
"586","
          <p id=""word"" style=""font-size: 40px;"">gladies</p>
          <p style=""font-size: 16px;"">J = YES &nbsp;&nbsp;&nbsp; F = NO</p>
        ","f","html-keyboard-response","110","2.1.0","271947","J=YES, F=NO","ze8w5mnr0a","0","85","85","85","","","","","","","","","gladies","tomato","pseudoword","pseudoword","f","true","",""
"null","<p style=""font-size: 50px;"">+</p>","null","html-keyboard-response","111","2.1.0","272250","J=YES, F=NO","ze8w5mnr0a","0","85","85","85","","","","","","","","","","","","","","","",""
"null","audio/beep-329314.mp3","null","audio-keyboard-response","112","2.1.0","273791","J=YES, F=NO","ze8w5mnr0a","0","85","85","85","","","","","","","","","","","","","","","",""
"null","audio/trust.wav","null","audio-keyboard-response","113","2.1.0","274440","J=YES, F=NO","ze8w5mnr0a","0","85","85","85","","","","","","","","","","","","","","","",""
"434","
          <p id=""word"" style=""font-size: 40px;"">swint</p>
          <p style=""font-size: 16px;"">J = YES &nbsp;&nbsp;&nbsp; F = NO</p>
        ","f","html-keyboard-response","114","2.1.0","274875","J=YES, F=NO","ze8w5mnr0a","0","85","85","85","","","","","","","","","swint","trust","pseudoword","pseudoword","f","true","",""
"6048","<p>Starting practice block 2 of 2. Press any key to continue.</p>","f","html-keyboard-response","115","2.1.0","280924","J=YES, F=NO","ze8w5mnr0a","0","85","85","85","","","","","","","","","","","","","","","",""
"null","<p style=""font-size: 50px;"">+</p>","null","html-keyboard-response","116","2.1.0","281228","J=YES, F=NO","ze8w5mnr0a","0","85","85","85","","","","","","","","","","","","","","","",""
"null","audio/beep-329314.mp3","null","audio-keyboard-response","117","2.1.0","282751","J=YES, F=NO","ze8w5mnr0a","0","85","85","85","","","","","","","","","","","","","","","",""
"null","audio/floor.wav","null","audio-keyboard-response","118","2.1.0","283321","J=YES, F=NO","ze8w5mnr0a","0","85","85","85","","","","","","","","","","","","","","","",""
"1130","
          <p id=""word"" style=""font-size: 40px;"">mop</p>
          <p style=""font-size: 16px;"">J = YES &nbsp;&nbsp;&nbsp; F = NO</p>
        ","j","html-keyboard-response","119","2.1.0","284452","J=YES, F=NO","ze8w5mnr0a","0","85","85","85","","","","","","","","","mop","floor","filler","filler","j","true","",""
"null","<p style=""font-size: 50px;"">+</p>","null","html-keyboard-response","120","2.1.0","284757","J=YES, F=NO","ze8w5mnr0a","0","85","85","85","","","","","","","","","","","","","","","",""
"null","audio/beep-329314.mp3","null","audio-keyboard-response","121","2.1.0","286291","J=YES, F=NO","ze8w5mnr0a","0","85","85","85","","","","","","","","","","","","","","","",""
"null","audio/trout1.wav","null","audio-keyboard-response","122","2.1.0","286921","J=YES, F=NO","ze8w5mnr0a","0","85","85","85","","","","","","","","","","","","","","","",""
"601","
          <p id=""word"" style=""font-size: 40px;"">spimt</p>
          <p style=""font-size: 16px;"">J = YES &nbsp;&nbsp;&nbsp; F = NO</p>
        ","f","html-keyboard-response","123","2.1.0","287522","J=YES, F=NO","ze8w5mnr0a","0","85","85","85","","","","","","","","","spimt","trout1","pseudoword","pseudoword","f","true","",""
"null","<p style=""font-size: 50px;"">+</p>","null","html-keyboard-response","124","2.1.0","287824","J=YES, F=NO","ze8w5mnr0a","0","85","85","85","","","","","","","","","","","","","","","",""
"null","audio/beep-329314.mp3","null","audio-keyboard-response","125","2.1.0","289350","J=YES, F=NO","ze8w5mnr0a","0","85","85","85","","","","","","","","","","","","","","","",""
"null","audio/dome.wav","null","audio-keyboard-response","126","2.1.0","289801","J=YES, F=NO","ze8w5mnr0a","0","85","85","85","","","","","","","","","","","","","","","",""
"641","
          <p id=""word"" style=""font-size: 40px;"">scrupliness</p>
          <p style=""font-size: 16px;"">J = YES &nbsp;&nbsp;&nbsp; F = NO</p>
        ","f","html-keyboard-response","127","2.1.0","290443","J=YES, F=NO","ze8w5mnr0a","0","85","85","85","","","","","","","","","scrupliness","dome","pseudoword","pseudoword","f","true","",""
"null","<p style=""font-size: 50px;"">+</p>","null","html-keyboard-response","128","2.1.0","290759","J=YES, F=NO","ze8w5mnr0a","0","85","85","85","","","","","","","","","","","","","","","",""
"null","audio/beep-329314.mp3","null","audio-keyboard-response","129","2.1.0","292290","J=YES, F=NO","ze8w5mnr0a","0","85","85","85","","","","","","","","","","","","","","","",""
"null","audio/bishop1.wav","null","audio-keyboard-response","130","2.1.0","292901","J=YES, F=NO","ze8w5mnr0a","0","85","85","85","","","","","","","","","","","","","","","",""
"478","
          <p id=""word"" style=""font-size: 40px;"">play</p>
          <p style=""font-size: 16px;"">J = YES &nbsp;&nbsp;&nbsp; F = NO</p>
        ","j","html-keyboard-response","131","2.1.0","293380","J=YES, F=NO","ze8w5mnr0a","0","85","85","85","","","","","","","","","play","bishop1","filler","filler","j","true","",""
"null","<p style=""font-size: 50px;"">+</p>","null","html-keyboard-response","132","2.1.0","293696","J=YES, F=NO","ze8w5mnr0a","0","85","85","85","","","","","","","","","","","","","","","",""
"null","audio/beep-329314.mp3","null","audio-keyboard-response","133","2.1.0","295231","J=YES, F=NO","ze8w5mnr0a","0","85","85","85","","","","","","","","","","","","","","","",""
"null","audio/bridge.wav","null","audio-keyboard-response","134","2.1.0","295781","J=YES, F=NO","ze8w5mnr0a","0","85","85","85","","","","","","","","","","","","","","","",""
"558","
          <p id=""word"" style=""font-size: 40px;"">crack</p>
          <p style=""font-size: 16px;"">J = YES &nbsp;&nbsp;&nbsp; F = NO</p>
        ","j","html-keyboard-response","135","2.1.0","296340","J=YES, F=NO","ze8w5mnr0a","0","85","85","85","","","","","","","","","crack","bridge","filler","filler","j","true","",""
"null","<p style=""font-size: 50px;"">+</p>","null","html-keyboard-response","136","2.1.0","296648","J=YES, F=NO","ze8w5mnr0a","0","85","85","85","","","","","","","","","","","","","","","",""
"null","audio/beep-329314.mp3","null","audio-keyboard-response","137","2.1.0","298170","J=YES, F=NO","ze8w5mnr0a","0","85","85","85","","","","","","","","","","","","","","","",""
"null","audio/survey1.wav","null","audio-keyboard-response","138","2.1.0","298941","J=YES, F=NO","ze8w5mnr0a","0","85","85","85","","","","","","","","","","","","","","","",""
"606","
          <p id=""word"" style=""font-size: 40px;"">imploth</p>
          <p style=""font-size: 16px;"">J = YES &nbsp;&nbsp;&nbsp; F = NO</p>
        ","f","html-keyboard-response","139","2.1.0","299547","J=YES, F=NO","ze8w5mnr0a","0","85","85","85","","","","","","","","","imploth","survey1","pseudoword","pseudoword","f","true","",""
"null","<p style=""font-size: 50px;"">+</p>","null","html-keyboard-response","140","2.1.0","299860","J=YES, F=NO","ze8w5mnr0a","0","85","85","85","","","","","","","","","","","","","","","",""
"null","audio/beep-329314.mp3","null","audio-keyboard-response","141","2.1.0","301391","J=YES, F=NO","ze8w5mnr0a","0","85","85","85","","","","","","","","","","","","","","","",""
"null","audio/menu.wav","null","audio-keyboard-response","142","2.1.0","301960","J=YES, F=NO","ze8w5mnr0a","0","85","85","85","","","","","","","","","","","","","","","",""
"610","
          <p id=""word"" style=""font-size: 40px;"">slice</p>
          <p style=""font-size: 16px;"">J = YES &nbsp;&nbsp;&nbsp; F = NO</p>
        ","f","html-keyboard-response","143","2.1.0","302571","J=YES, F=NO","ze8w5mnr0a","0","85","85","85","","","","","","","","","slice","menu","filler","filler","j","false","",""
"null","<p style=""font-size: 50px;"">+</p>","null","html-keyboard-response","144","2.1.0","302881","J=YES, F=NO","ze8w5mnr0a","0","85","85","85","","","","","","","","","","","","","","","",""
"null","audio/beep-329314.mp3","null","audio-keyboard-response","145","2.1.0","304411","J=YES, F=NO","ze8w5mnr0a","0","85","85","85","","","","","","","","","","","","","","","",""
"null","audio/window1.wav","null","audio-keyboard-response","146","2.1.0","305061","J=YES, F=NO","ze8w5mnr0a","0","85","85","85","","","","","","","","","","","","","","","",""
"605","
          <p id=""word"" style=""font-size: 40px;"">toss</p>
          <p style=""font-size: 16px;"">J = YES &nbsp;&nbsp;&nbsp; F = NO</p>
        ","j","html-keyboard-response","147","2.1.0","305667","J=YES, F=NO","ze8w5mnr0a","0","85","85","85","","","","","","","","","toss","window1","filler","filler","j","true","",""
"null","<p style=""font-size: 50px;"">+</p>","null","html-keyboard-response","148","2.1.0","305982","J=YES, F=NO","ze8w5mnr0a","0","85","85","85","","","","","","","","","","","","","","","",""
"null","audio/beep-329314.mp3","null","audio-keyboard-response","149","2.1.0","307511","J=YES, F=NO","ze8w5mnr0a","0","85","85","85","","","","","","","","","","","","","","","",""
"null","audio/stain.wav","null","audio-keyboard-response","150","2.1.0","308300","J=YES, F=NO","ze8w5mnr0a","0","85","85","85","","","","","","","","","","","","","","","",""
"695","
          <p id=""word"" style=""font-size: 40px;"">rumpsied</p>
          <p style=""font-size: 16px;"">J = YES &nbsp;&nbsp;&nbsp; F = NO</p>
        ","f","html-keyboard-response","151","2.1.0","308996","J=YES, F=NO","ze8w5mnr0a","0","85","85","85","","","","","","","","","rumpsied","stain","pseudoword","pseudoword","f","true","",""
"null","<p style=""font-size: 50px;"">+</p>","null","html-keyboard-response","152","2.1.0","309309","J=YES, F=NO","ze8w5mnr0a","0","85","85","85","","","","","","","","","","","","","","","",""
"null","audio/beep-329314.mp3","null","audio-keyboard-response","153","2.1.0","310831","J=YES, F=NO","ze8w5mnr0a","0","85","85","85","","","","","","","","","","","","","","","",""
"null","audio/bottle.wav","null","audio-keyboard-response","154","2.1.0","311301","J=YES, F=NO","ze8w5mnr0a","0","85","85","85","","","","","","","","","","","","","","","",""
"494","
          <p id=""word"" style=""font-size: 40px;"">watch</p>
          <p style=""font-size: 16px;"">J = YES &nbsp;&nbsp;&nbsp; F = NO</p>
        ","j","html-keyboard-response","155","2.1.0","311796","J=YES, F=NO","ze8w5mnr0a","0","85","85","85","","","","","","","","","watch","bottle","filler","filler","j","true","",""
"null","<p style=""font-size: 50px;"">+</p>","null","html-keyboard-response","156","2.1.0","312101","J=YES, F=NO","ze8w5mnr0a","0","85","85","85","","","","","","","","","","","","","","","",""
"null","audio/beep-329314.mp3","null","audio-keyboard-response","157","2.1.0","313631","J=YES, F=NO","ze8w5mnr0a","0","85","85","85","","","","","","","","","","","","","","","",""
"null","audio/bomb1.wav","null","audio-keyboard-response","158","2.1.0","314160","J=YES, F=NO","ze8w5mnr0a","0","85","85","85","","","","","","","","","","","","","","","",""
"514","
          <p id=""word"" style=""font-size: 40px;"">clean</p>
          <p style=""font-size: 16px;"">J = YES &nbsp;&nbsp;&nbsp; F = NO</p>
        ","j","html-keyboard-response","159","2.1.0","314675","J=YES, F=NO","ze8w5mnr0a","0","85","85","85","","","","","","","","","clean","bomb1","filler","filler","j","true","",""
"null","<p style=""font-size: 50px;"">+</p>","null","html-keyboard-response","160","2.1.0","314983","J=YES, F=NO","ze8w5mnr0a","0","85","85","85","","","","","","","","","","","","","","","",""
"null","audio/beep-329314.mp3","null","audio-keyboard-response","161","2.1.0","316511","J=YES, F=NO","ze8w5mnr0a","0","85","85","85","","","","","","","","","","","","","","","",""
"null","audio/corpse1.wav","null","audio-keyboard-response","162","2.1.0","317261","J=YES, F=NO","ze8w5mnr0a","0","85","85","85","","","","","","","","","","","","","","","",""
"580","
          <p id=""word"" style=""font-size: 40px;"">glonet</p>
          <p style=""font-size: 16px;"">J = YES &nbsp;&nbsp;&nbsp; F = NO</p>
        ","f","html-keyboard-response","163","2.1.0","317843","J=YES, F=NO","ze8w5mnr0a","0","85","85","85","","","","","","","","","glonet","corpse1","pseudoword","pseudoword","f","true","",""
"3193","
    <div style=""max-width: 800px; margin: auto; text-align: left;"">
      <h2>Part 2: Main Trials</h2>
      <p>Great job on the practice trials!</p>
      <p>You will now begin the <strong>main set of trials</strong>.</p>
      <p>Remember your key assignments:</p>
      <ul>
        <li><strong>J</strong> = YES (real English word)</li>
        <li><strong>F</strong> = NO (not a real English word)</li>
      </ul>
      <p>Try to respond as <strong>quickly and accurately</strong> as possible.</p>
      <p style=""margin-top: 2em;"">Press any key to begin the main trials.</p>
    </div>
  ","f","html-keyboard-response","164","2.1.0","321036","J=YES, F=NO","ze8w5mnr0a","0","85","85","85","","","","","","","","","","","","","","","",""
"1190","<p>Starting main block 1 of 8. Press any key to continue.</p>","f","html-keyboard-response","165","2.1.0","322227","J=YES, F=NO","ze8w5mnr0a","0","85","85","85","","","","","","","","","","","","","","","",""
"null","<p style=""font-size: 50px;"">+</p>","null","html-keyboard-response","166","2.1.0","322542","J=YES, F=NO","ze8w5mnr0a","0","85","85","85","","","","","","","","","","","","","","","",""
"null","audio/beep-329314.mp3","null","audio-keyboard-response","167","2.1.0","324069","J=YES, F=NO","ze8w5mnr0a","0","85","85","85","","","","","","","","","","","","","","","",""
"null","audio/mind.wav","null","audio-keyboard-response","168","2.1.0","324760","J=YES, F=NO","ze8w5mnr0a","0","85","85","85","","","","","","","","","","","","","","","",""
"643","
          <p id=""word"" style=""font-size: 40px;"">crainate</p>
          <p style=""font-size: 16px;"">J = YES &nbsp;&nbsp;&nbsp; F = NO</p>
        ","f","html-keyboard-response","169","2.1.0","325403","J=YES, F=NO","ze8w5mnr0a","0","85","85","85","","","","","","","","","crainate","mind","pseudoword","pseudoword","f","true","",""
"null","<p style=""font-size: 50px;"">+</p>","null","html-keyboard-response","170","2.1.0","325708","J=YES, F=NO","ze8w5mnr0a","0","85","85","85","","","","","","","","","","","","","","","",""
"null","audio/beep-329314.mp3","null","audio-keyboard-response","171","2.1.0","327231","J=YES, F=NO","ze8w5mnr0a","0","85","85","85","","","","","","","","","","","","","","","",""
"null","audio/ankle1.wav","null","audio-keyboard-response","172","2.1.0","327881","J=YES, F=NO","ze8w5mnr0a","0","85","85","85","","","","","","","","","","","","","","","",""
"505","
          <p id=""word"" style=""font-size: 40px;"">kick</p>
          <p style=""font-size: 16px;"">J = YES &nbsp;&nbsp;&nbsp; F = NO</p>
        ","j","html-keyboard-response","173","2.1.0","328387","J=YES, F=NO","ze8w5mnr0a","0","85","85","85","","","","","","","","","kick","ankle1","filler","filler","j","true","",""
"null","<p style=""font-size: 50px;"">+</p>","null","html-keyboard-response","174","2.1.0","328693","J=YES, F=NO","ze8w5mnr0a","0","85","85","85","","","","","","","","","","","","","","","",""
"null","audio/beep-329314.mp3","null","audio-keyboard-response","175","2.1.0","330231","J=YES, F=NO","ze8w5mnr0a","0","85","85","85","","","","","","","","","","","","","","","",""
"null","audio/plane1.wav","null","audio-keyboard-response","176","2.1.0","330661","J=YES, F=NO","ze8w5mnr0a","0","85","85","85","","","","","","","","","","","","","","","",""
"446","
          <p id=""word"" style=""font-size: 40px;"">land</p>
          <p style=""font-size: 16px;"">J = YES &nbsp;&nbsp;&nbsp; F = NO</p>
        ","j","html-keyboard-response","177","2.1.0","331108","J=YES, F=NO","ze8w5mnr0a","0","85","85","85","","","","","","","","","land","plane1","literal","experimental","j","true","",""
"null","<p style=""font-size: 50px;"">+</p>","null","html-keyboard-response","178","2.1.0","331411","J=YES, F=NO","ze8w5mnr0a","0","85","85","85","","","","","","","","","","","","","","","",""
"null","audio/beep-329314.mp3","null","audio-keyboard-response","179","2.1.0","332951","J=YES, F=NO","ze8w5mnr0a","0","85","85","85","","","","","","","","","","","","","","","",""
"null","audio/church1.wav","null","audio-keyboard-response","180","2.1.0","333641","J=YES, F=NO","ze8w5mnr0a","0","85","85","85","","","","","","","","","","","","","","","",""
"625","
          <p id=""word"" style=""font-size: 40px;"">cover</p>
          <p style=""font-size: 16px;"">J = YES &nbsp;&nbsp;&nbsp; F = NO</p>
        ","j","html-keyboard-response","181","2.1.0","334267","J=YES, F=NO","ze8w5mnr0a","0","85","85","85","","","","","","","","","cover","church1","unrelated","experimental","j","true","",""
"null","<p style=""font-size: 50px;"">+</p>","null","html-keyboard-response","182","2.1.0","334569","J=YES, F=NO","ze8w5mnr0a","0","85","85","85","","","","","","","","","","","","","","","",""
"null","audio/beep-329314.mp3","null","audio-keyboard-response","183","2.1.0","336111","J=YES, F=NO","ze8w5mnr0a","0","85","85","85","","","","","","","","","","","","","","","",""
"null","audio/roof1.wav","null","audio-keyboard-response","184","2.1.0","336760","J=YES, F=NO","ze8w5mnr0a","0","85","85","85","","","","","","","","","","","","","","","",""
"506","
          <p id=""word"" style=""font-size: 40px;"">construct</p>
          <p style=""font-size: 16px;"">J = YES &nbsp;&nbsp;&nbsp; F = NO</p>
        ","j","html-keyboard-response","185","2.1.0","337267","J=YES, F=NO","ze8w5mnr0a","0","85","85","85","","","","","","","","","construct","roof1","literal","experimental","j","true","",""
"null","<p style=""font-size: 50px;"">+</p>","null","html-keyboard-response","186","2.1.0","337571","J=YES, F=NO","ze8w5mnr0a","0","85","85","85","","","","","","","","","","","","","","","",""
"null","audio/beep-329314.mp3","null","audio-keyboard-response","187","2.1.0","339111","J=YES, F=NO","ze8w5mnr0a","0","85","85","85","","","","","","","","","","","","","","","",""
"null","audio/haste1.wav","null","audio-keyboard-response","188","2.1.0","339800","J=YES, F=NO","ze8w5mnr0a","0","85","85","85","","","","","","","","","","","","","","","",""
"587","
          <p id=""word"" style=""font-size: 40px;"">coraconate</p>
          <p style=""font-size: 16px;"">J = YES &nbsp;&nbsp;&nbsp; F = NO</p>
        ","f","html-keyboard-response","189","2.1.0","340388","J=YES, F=NO","ze8w5mnr0a","0","85","85","85","","","","","","","","","coraconate","haste1","pseudoword","pseudoword","f","true","",""
"null","<p style=""font-size: 50px;"">+</p>","null","html-keyboard-response","190","2.1.0","340701","J=YES, F=NO","ze8w5mnr0a","0","85","85","85","","","","","","","","","","","","","","","",""
"null","audio/beep-329314.mp3","null","audio-keyboard-response","191","2.1.0","342231","J=YES, F=NO","ze8w5mnr0a","0","85","85","85","","","","","","","","","","","","","","","",""
"null","audio/ankle1.wav","null","audio-keyboard-response","192","2.1.0","342741","J=YES, F=NO","ze8w5mnr0a","0","85","85","85","","","","","","","","","","","","","","","",""
"718","
          <p id=""word"" style=""font-size: 40px;"">switm</p>
          <p style=""font-size: 16px;"">J = YES &nbsp;&nbsp;&nbsp; F = NO</p>
        ","f","html-keyboard-response","193","2.1.0","343460","J=YES, F=NO","ze8w5mnr0a","0","85","85","85","","","","","","","","","switm","ankle1","pseudoword","pseudoword","f","true","",""
"null","<p style=""font-size: 50px;"">+</p>","null","html-keyboard-response","194","2.1.0","343774","J=YES, F=NO","ze8w5mnr0a","0","85","85","85","","","","","","","","","","","","","","","",""
"null","audio/beep-329314.mp3","null","audio-keyboard-response","195","2.1.0","345311","J=YES, F=NO","ze8w5mnr0a","0","85","85","85","","","","","","","","","","","","","","","",""
"null","audio/foot1.wav","null","audio-keyboard-response","196","2.1.0","346021","J=YES, F=NO","ze8w5mnr0a","0","85","85","85","","","","","","","","","","","","","","","",""
"414","
          <p id=""word"" style=""font-size: 40px;"">close</p>
          <p style=""font-size: 16px;"">J = YES &nbsp;&nbsp;&nbsp; F = NO</p>
        ","j","html-keyboard-response","197","2.1.0","346435","J=YES, F=NO","ze8w5mnr0a","0","85","85","85","","","","","","","","","close","foot1","unrelated","experimental","j","true","",""
"null","<p style=""font-size: 50px;"">+</p>","null","html-keyboard-response","198","2.1.0","346751","J=YES, F=NO","ze8w5mnr0a","0","85","85","85","","","","","","","","","","","","","","","",""
"null","audio/beep-329314.mp3","null","audio-keyboard-response","199","2.1.0","348291","J=YES, F=NO","ze8w5mnr0a","0","85","85","85","","","","","","","","","","","","","","","",""
"null","audio/foe1.wav","null","audio-keyboard-response","200","2.1.0","348921","J=YES, F=NO","ze8w5mnr0a","0","85","85","85","","","","","","","","","","","","","","","",""
"594","
          <p id=""word"" style=""font-size: 40px;"">creth</p>
          <p style=""font-size: 16px;"">J = YES &nbsp;&nbsp;&nbsp; F = NO</p>
        ","f","html-keyboard-response","201","2.1.0","349515","J=YES, F=NO","ze8w5mnr0a","0","85","85","85","","","","","","","","","creth","foe1","pseudoword","pseudoword","f","true","",""
"null","<p style=""font-size: 50px;"">+</p>","null","html-keyboard-response","202","2.1.0","349824","J=YES, F=NO","ze8w5mnr0a","0","85","85","85","","","","","","","","","","","","","","","",""
"null","audio/beep-329314.mp3","null","audio-keyboard-response","203","2.1.0","351351","J=YES, F=NO","ze8w5mnr0a","0","85","85","85","","","","","","","","","","","","","","","",""
"null","audio/topic.wav","null","audio-keyboard-response","204","2.1.0","352041","J=YES, F=NO","ze8w5mnr0a","0","85","85","85","","","","","","","","","","","","","","","",""
"610","
          <p id=""word"" style=""font-size: 40px;"">infortuitist</p>
          <p style=""font-size: 16px;"">J = YES &nbsp;&nbsp;&nbsp; F = NO</p>
        ","f","html-keyboard-response","205","2.1.0","352652","J=YES, F=NO","ze8w5mnr0a","0","85","85","85","","","","","","","","","infortuitist","topic","pseudoword","pseudoword","f","true","",""
"null","<p style=""font-size: 50px;"">+</p>","null","html-keyboard-response","206","2.1.0","352956","J=YES, F=NO","ze8w5mnr0a","0","85","85","85","","","","","","","","","","","","","","","",""
"null","audio/beep-329314.mp3","null","audio-keyboard-response","207","2.1.0","354490","J=YES, F=NO","ze8w5mnr0a","0","85","85","85","","","","","","","","","","","","","","","",""
"null","audio/neck.wav","null","audio-keyboard-response","208","2.1.0","355021","J=YES, F=NO","ze8w5mnr0a","0","85","85","85","","","","","","","","","","","","","","","",""
"438","
          <p id=""word"" style=""font-size: 40px;"">share</p>
          <p style=""font-size: 16px;"">J = YES &nbsp;&nbsp;&nbsp; F = NO</p>
        ","j","html-keyboard-response","209","2.1.0","355460","J=YES, F=NO","ze8w5mnr0a","0","85","85","85","","","","","","","","","share","neck","unrelated","experimental","j","true","",""
"null","<p style=""font-size: 50px;"">+</p>","null","html-keyboard-response","210","2.1.0","355769","J=YES, F=NO","ze8w5mnr0a","0","85","85","85","","","","","","","","","","","","","","","",""
"null","audio/beep-329314.mp3","null","audio-keyboard-response","211","2.1.0","357291","J=YES, F=NO","ze8w5mnr0a","0","85","85","85","","","","","","","","","","","","","","","",""
"null","audio/camera1.wav","null","audio-keyboard-response","212","2.1.0","357921","J=YES, F=NO","ze8w5mnr0a","0","85","85","85","","","","","","","","","","","","","","","",""
"577","
          <p id=""word"" style=""font-size: 40px;"">stir</p>
          <p style=""font-size: 16px;"">J = YES &nbsp;&nbsp;&nbsp; F = NO</p>
        ","j","html-keyboard-response","213","2.1.0","358499","J=YES, F=NO","ze8w5mnr0a","0","85","85","85","","","","","","","","","stir","camera1","filler","filler","j","true","",""
"null","<p style=""font-size: 50px;"">+</p>","null","html-keyboard-response","214","2.1.0","358802","J=YES, F=NO","ze8w5mnr0a","0","85","85","85","","","","","","","","","","","","","","","",""
"null","audio/beep-329314.mp3","null","audio-keyboard-response","215","2.1.0","360331","J=YES, F=NO","ze8w5mnr0a","0","85","85","85","","","","","","","","","","","","","","","",""
"null","audio/hawk1.wav","null","audio-keyboard-response","216","2.1.0","361041","J=YES, F=NO","ze8w5mnr0a","0","85","85","85","","","","","","","","","","","","","","","",""
"522","
          <p id=""word"" style=""font-size: 40px;"">ostach</p>
          <p style=""font-size: 16px;"">J = YES &nbsp;&nbsp;&nbsp; F = NO</p>
        ","f","html-keyboard-response","217","2.1.0","361564","J=YES, F=NO","ze8w5mnr0a","0","85","85","85","","","","","","","","","ostach","hawk1","pseudoword","pseudoword","f","true","",""
"null","<p style=""font-size: 50px;"">+</p>","null","html-keyboard-response","218","2.1.0","361879","J=YES, F=NO","ze8w5mnr0a","0","85","85","85","","","","","","","","","","","","","","","",""
"null","audio/beep-329314.mp3","null","audio-keyboard-response","219","2.1.0","363411","J=YES, F=NO","ze8w5mnr0a","0","85","85","85","","","","","","","","","","","","","","","",""
"null","audio/pig.wav","null","audio-keyboard-response","220","2.1.0","363781","J=YES, F=NO","ze8w5mnr0a","0","85","85","85","","","","","","","","","","","","","","","",""
"470","
          <p id=""word"" style=""font-size: 40px;"">feed</p>
          <p style=""font-size: 16px;"">J = YES &nbsp;&nbsp;&nbsp; F = NO</p>
        ","j","html-keyboard-response","221","2.1.0","364252","J=YES, F=NO","ze8w5mnr0a","0","85","85","85","","","","","","","","","feed","pig","literal","experimental","j","true","",""
"null","<p style=""font-size: 50px;"">+</p>","null","html-keyboard-response","222","2.1.0","364559","J=YES, F=NO","ze8w5mnr0a","0","85","85","85","","","","","","","","","","","","","","","",""
"null","audio/beep-329314.mp3","null","audio-keyboard-response","223","2.1.0","366091","J=YES, F=NO","ze8w5mnr0a","0","85","85","85","","","","","","","","","","","","","","","",""
"null","audio/brain.wav","null","audio-keyboard-response","224","2.1.0","366721","J=YES, F=NO","ze8w5mnr0a","0","85","85","85","","","","","","","","","","","","","","","",""
"433","
          <p id=""word"" style=""font-size: 40px;"">throw</p>
          <p style=""font-size: 16px;"">J = YES &nbsp;&nbsp;&nbsp; F = NO</p>
        ","j","html-keyboard-response","225","2.1.0","367155","J=YES, F=NO","ze8w5mnr0a","0","85","85","85","","","","","","","","","throw","brain","filler","filler","j","true","",""
"null","<p style=""font-size: 50px;"">+</p>","null","html-keyboard-response","226","2.1.0","367460","J=YES, F=NO","ze8w5mnr0a","0","85","85","85","","","","","","","","","","","","","","","",""
"null","audio/beep-329314.mp3","null","audio-keyboard-response","227","2.1.0","368991","J=YES, F=NO","ze8w5mnr0a","0","85","85","85","","","","","","","","","","","","","","","",""
"null","audio/effort.wav","null","audio-keyboard-response","228","2.1.0","369601","J=YES, F=NO","ze8w5mnr0a","0","85","85","85","","","","","","","","","","","","","","","",""
"473","
          <p id=""word"" style=""font-size: 40px;"">invest</p>
          <p style=""font-size: 16px;"">J = YES &nbsp;&nbsp;&nbsp; F = NO</p>
        ","j","html-keyboard-response","229","2.1.0","370075","J=YES, F=NO","ze8w5mnr0a","0","85","85","85","","","","","","","","","invest","effort","metaphor","experimental","j","true","",""
"3079","<p>Excellent! You have finished block 1 of 8.</p>
                     <p>Feel free to take a 30 second break.</p>
                     <p>Press any key when you're ready to continue.</p>","j","html-keyboard-response","230","2.1.0","373155","J=YES, F=NO","ze8w5mnr0a","0","85","85","85","","","","","","","","","","","","","","","",""
"983","<p>Starting main block 2 of 8. Press any key to continue.</p>","j","html-keyboard-response","231","2.1.0","374139","J=YES, F=NO","ze8w5mnr0a","0","85","85","85","","","","","","","","","","","","","","","",""
"null","<p style=""font-size: 50px;"">+</p>","null","html-keyboard-response","232","2.1.0","374448","J=YES, F=NO","ze8w5mnr0a","0","85","85","85","","","","","","","","","","","","","","","",""
"null","audio/beep-329314.mp3","null","audio-keyboard-response","233","2.1.0","375969","J=YES, F=NO","ze8w5mnr0a","0","85","85","85","","","","","","","","","","","","","","","",""
"null","audio/sugar1.wav","null","audio-keyboard-response","234","2.1.0","376481","J=YES, F=NO","ze8w5mnr0a","0","85","85","85","","","","","","","","","","","","","","","",""
"546","
          <p id=""word"" style=""font-size: 40px;"">approach</p>
          <p style=""font-size: 16px;"">J = YES &nbsp;&nbsp;&nbsp; F = NO</p>
        ","j","html-keyboard-response","235","2.1.0","377027","J=YES, F=NO","ze8w5mnr0a","0","85","85","85","","","","","","","","","approach","sugar1","unrelated","experimental","j","true","",""
"null","<p style=""font-size: 50px;"">+</p>","null","html-keyboard-response","236","2.1.0","377344","J=YES, F=NO","ze8w5mnr0a","0","85","85","85","","","","","","","","","","","","","","","",""
"null","audio/beep-329314.mp3","null","audio-keyboard-response","237","2.1.0","378870","J=YES, F=NO","ze8w5mnr0a","0","85","85","85","","","","","","","","","","","","","","","",""
"null","audio/empire.wav","null","audio-keyboard-response","238","2.1.0","379520","J=YES, F=NO","ze8w5mnr0a","0","85","85","85","","","","","","","","","","","","","","","",""
"579","
          <p id=""word"" style=""font-size: 40px;"">slorby</p>
          <p style=""font-size: 16px;"">J = YES &nbsp;&nbsp;&nbsp; F = NO</p>
        ","f","html-keyboard-response","239","2.1.0","380100","J=YES, F=NO","ze8w5mnr0a","0","85","85","85","","","","","","","","","slorby","empire","pseudoword","pseudoword","f","true","",""
"null","<p style=""font-size: 50px;"">+</p>","null","html-keyboard-response","240","2.1.0","380403","J=YES, F=NO","ze8w5mnr0a","0","85","85","85","","","","","","","","","","","","","","","",""
"null","audio/beep-329314.mp3","null","audio-keyboard-response","241","2.1.0","381931","J=YES, F=NO","ze8w5mnr0a","0","85","85","85","","","","","","","","","","","","","","","",""
"null","audio/uncle1.wav","null","audio-keyboard-response","242","2.1.0","382421","J=YES, F=NO","ze8w5mnr0a","0","85","85","85","","","","","","","","","","","","","","","",""
"437","
          <p id=""word"" style=""font-size: 40px;"">break</p>
          <p style=""font-size: 16px;"">J = YES &nbsp;&nbsp;&nbsp; F = NO</p>
        ","j","html-keyboard-response","243","2.1.0","382859","J=YES, F=NO","ze8w5mnr0a","0","85","85","85","","","","","","","","","break","uncle1","unrelated","experimental","j","true","",""
"null","<p style=""font-size: 50px;"">+</p>","null","html-keyboard-response","244","2.1.0","383160","J=YES, F=NO","ze8w5mnr0a","0","85","85","85","","","","","","","","","","","","","","","",""
"null","audio/beep-329314.mp3","null","audio-keyboard-response","245","2.1.0","384691","J=YES, F=NO","ze8w5mnr0a","0","85","85","85","","","","","","","","","","","","","","","",""
"null","audio/client1.wav","null","audio-keyboard-response","246","2.1.0","385501","J=YES, F=NO","ze8w5mnr0a","0","85","85","85","","","","","","","","","","","","","","","",""
"558","
          <p id=""word"" style=""font-size: 40px;"">droothe</p>
          <p style=""font-size: 16px;"">J = YES &nbsp;&nbsp;&nbsp; F = NO</p>
        ","f","html-keyboard-response","247","2.1.0","386060","J=YES, F=NO","ze8w5mnr0a","0","85","85","85","","","","","","","","","droothe","client1","pseudoword","pseudoword","f","true","",""
"null","<p style=""font-size: 50px;"">+</p>","null","html-keyboard-response","248","2.1.0","386375","J=YES, F=NO","ze8w5mnr0a","0","85","85","85","","","","","","","","","","","","","","","",""
"null","audio/beep-329314.mp3","null","audio-keyboard-response","249","2.1.0","387911","J=YES, F=NO","ze8w5mnr0a","0","85","85","85","","","","","","","","","","","","","","","",""
"null","audio/truth1.wav","null","audio-keyboard-response","250","2.1.0","388581","J=YES, F=NO","ze8w5mnr0a","0","85","85","85","","","","","","","","","","","","","","","",""
"621","
          <p id=""word"" style=""font-size: 40px;"">calitom</p>
          <p style=""font-size: 16px;"">J = YES &nbsp;&nbsp;&nbsp; F = NO</p>
        ","f","html-keyboard-response","251","2.1.0","389204","J=YES, F=NO","ze8w5mnr0a","0","85","85","85","","","","","","","","","calitom","truth1","pseudoword","pseudoword","f","true","",""
"null","<p style=""font-size: 50px;"">+</p>","null","html-keyboard-response","252","2.1.0","389518","J=YES, F=NO","ze8w5mnr0a","0","85","85","85","","","","","","","","","","","","","","","",""
"null","audio/beep-329314.mp3","null","audio-keyboard-response","253","2.1.0","391051","J=YES, F=NO","ze8w5mnr0a","0","85","85","85","","","","","","","","","","","","","","","",""
"null","audio/dollar.wav","null","audio-keyboard-response","254","2.1.0","391441","J=YES, F=NO","ze8w5mnr0a","0","85","85","85","","","","","","","","","","","","","","","",""
"673","
          <p id=""word"" style=""font-size: 40px;"">gliptism</p>
          <p style=""font-size: 16px;"">J = YES &nbsp;&nbsp;&nbsp; F = NO</p>
        ","f","html-keyboard-response","255","2.1.0","392115","J=YES, F=NO","ze8w5mnr0a","0","85","85","85","","","","","","","","","gliptism","dollar","pseudoword","pseudoword","f","true","",""
"null","<p style=""font-size: 50px;"">+</p>","null","html-keyboard-response","256","2.1.0","392417","J=YES, F=NO","ze8w5mnr0a","0","85","85","85","","","","","","","","","","","","","","","",""
"null","audio/beep-329314.mp3","null","audio-keyboard-response","257","2.1.0","393951","J=YES, F=NO","ze8w5mnr0a","0","85","85","85","","","","","","","","","","","","","","","",""
"null","audio/winter.wav","null","audio-keyboard-response","258","2.1.0","394541","J=YES, F=NO","ze8w5mnr0a","0","85","85","85","","","","","","","","","","","","","","","",""
"493","
          <p id=""word"" style=""font-size: 40px;"">expose</p>
          <p style=""font-size: 16px;"">J = YES &nbsp;&nbsp;&nbsp; F = NO</p>
        ","j","html-keyboard-response","259","2.1.0","395035","J=YES, F=NO","ze8w5mnr0a","0","85","85","85","","","","","","","","","expose","winter","unrelated","experimental","j","true","",""
"null","<p style=""font-size: 50px;"">+</p>","null","html-keyboard-response","260","2.1.0","395344","J=YES, F=NO","ze8w5mnr0a","0","85","85","85","","","","","","","","","","","","","","","",""
"null","audio/beep-329314.mp3","null","audio-keyboard-response","261","2.1.0","396870","J=YES, F=NO","ze8w5mnr0a","0","85","85","85","","","","","","","","","","","","","","","",""
"null","audio/baby.wav","null","audio-keyboard-response","262","2.1.0","397481","J=YES, F=NO","ze8w5mnr0a","0","85","85","85","","","","","","","","","","","","","","","",""
"738","
          <p id=""word"" style=""font-size: 40px;"">lift</p>
          <p style=""font-size: 16px;"">J = YES &nbsp;&nbsp;&nbsp; F = NO</p>
        ","j","html-keyboard-response","263","2.1.0","398220","J=YES, F=NO","ze8w5mnr0a","0","85","85","85","","","","","","","","","lift","baby","filler","filler","j","true","",""
"null","<p style=""font-size: 50px;"">+</p>","null","html-keyboard-response","264","2.1.0","398520","J=YES, F=NO","ze8w5mnr0a","0","85","85","85","","","","","","","","","","","","","","","",""
"null","audio/beep-329314.mp3","null","audio-keyboard-response","265","2.1.0","400051","J=YES, F=NO","ze8w5mnr0a","0","85","85","85","","","","","","","","","","","","","","","",""
"null","audio/life1.wav","null","audio-keyboard-response","266","2.1.0","400641","J=YES, F=NO","ze8w5mnr0a","0","85","85","85","","","","","","","","","","","","","","","",""
"418","
          <p id=""word"" style=""font-size: 40px;"">give</p>
          <p style=""font-size: 16px;"">J = YES &nbsp;&nbsp;&nbsp; F = NO</p>
        ","j","html-keyboard-response","267","2.1.0","401059","J=YES, F=NO","ze8w5mnr0a","0","85","85","85","","","","","","","","","give","life1","metaphor","experimental","j","true","",""
"null","<p style=""font-size: 50px;"">+</p>","null","html-keyboard-response","268","2.1.0","401369","J=YES, F=NO","ze8w5mnr0a","0","85","85","85","","","","","","","","","","","","","","","",""
"null","audio/beep-329314.mp3","null","audio-keyboard-response","269","2.1.0","402890","J=YES, F=NO","ze8w5mnr0a","0","85","85","85","","","","","","","","","","","","","","","",""
"null","audio/foot1.wav","null","audio-keyboard-response","270","2.1.0","403421","J=YES, F=NO","ze8w5mnr0a","0","85","85","85","","","","","","","","","","","","","","","",""
"541","
          <p id=""word"" style=""font-size: 40px;"">thrutt</p>
          <p style=""font-size: 16px;"">J = YES &nbsp;&nbsp;&nbsp; F = NO</p>
        ","f","html-keyboard-response","271","2.1.0","403963","J=YES, F=NO","ze8w5mnr0a","0","85","85","85","","","","","","","","","thrutt","foot1","pseudoword","pseudoword","f","true","",""
"null","<p style=""font-size: 50px;"">+</p>","null","html-keyboard-response","272","2.1.0","404278","J=YES, F=NO","ze8w5mnr0a","0","85","85","85","","","","","","","","","","","","","","","",""
"null","audio/beep-329314.mp3","null","audio-keyboard-response","273","2.1.0","405811","J=YES, F=NO","ze8w5mnr0a","0","85","85","85","","","","","","","","","","","","","","","",""
"null","audio/burden.wav","null","audio-keyboard-response","274","2.1.0","406301","J=YES, F=NO","ze8w5mnr0a","0","85","85","85","","","","","","","","","","","","","","","",""
"614","
          <p id=""word"" style=""font-size: 40px;"">carry</p>
          <p style=""font-size: 16px;"">J = YES &nbsp;&nbsp;&nbsp; F = NO</p>
        ","j","html-keyboard-response","275","2.1.0","406916","J=YES, F=NO","ze8w5mnr0a","0","85","85","85","","","","","","","","","carry","burden","metaphor","experimental","j","true","",""
"null","<p style=""font-size: 50px;"">+</p>","null","html-keyboard-response","276","2.1.0","407232","J=YES, F=NO","ze8w5mnr0a","0","85","85","85","","","","","","","","","","","","","","","",""
"null","audio/beep-329314.mp3","null","audio-keyboard-response","277","2.1.0","408771","J=YES, F=NO","ze8w5mnr0a","0","85","85","85","","","","","","","","","","","","","","","",""
"null","audio/tunnel.wav","null","audio-keyboard-response","278","2.1.0","409201","J=YES, F=NO","ze8w5mnr0a","0","85","85","85","","","","","","","","","","","","","","","",""
"377","
          <p id=""word"" style=""font-size: 40px;"">gred</p>
          <p style=""font-size: 16px;"">J = YES &nbsp;&nbsp;&nbsp; F = NO</p>
        ","j","html-keyboard-response","279","2.1.0","409579","J=YES, F=NO","ze8w5mnr0a","0","85","85","85","","","","","","","","","gred","tunnel","pseudoword","pseudoword","f","false","",""
"null","<p style=""font-size: 50px;"">+</p>","null","html-keyboard-response","280","2.1.0","409879","J=YES, F=NO","ze8w5mnr0a","0","85","85","85","","","","","","","","","","","","","","","",""
"null","audio/beep-329314.mp3","null","audio-keyboard-response","281","2.1.0","411411","J=YES, F=NO","ze8w5mnr0a","0","85","85","85","","","","","","","","","","","","","","","",""
"null","audio/alarm1.wav","null","audio-keyboard-response","282","2.1.0","412121","J=YES, F=NO","ze8w5mnr0a","0","85","85","85","","","","","","","","","","","","","","","",""
"522","
          <p id=""word"" style=""font-size: 40px;"">lock</p>
          <p style=""font-size: 16px;"">J = YES &nbsp;&nbsp;&nbsp; F = NO</p>
        ","j","html-keyboard-response","283","2.1.0","412643","J=YES, F=NO","ze8w5mnr0a","0","85","85","85","","","","","","","","","lock","alarm1","filler","filler","j","true","",""
"null","<p style=""font-size: 50px;"">+</p>","null","html-keyboard-response","284","2.1.0","412951","J=YES, F=NO","ze8w5mnr0a","0","85","85","85","","","","","","","","","","","","","","","",""
"null","audio/beep-329314.mp3","null","audio-keyboard-response","285","2.1.0","414491","J=YES, F=NO","ze8w5mnr0a","0","85","85","85","","","","","","","","","","","","","","","",""
"null","audio/vehicle1.wav","null","audio-keyboard-response","286","2.1.0","415261","J=YES, F=NO","ze8w5mnr0a","0","85","85","85","","","","","","","","","","","","","","","",""
"613","
          <p id=""word"" style=""font-size: 40px;"">dropt</p>
          <p style=""font-size: 16px;"">J = YES &nbsp;&nbsp;&nbsp; F = NO</p>
        ","f","html-keyboard-response","287","2.1.0","415874","J=YES, F=NO","ze8w5mnr0a","0","85","85","85","","","","","","","","","dropt","vehicle1","pseudoword","pseudoword","f","true","",""
"null","<p style=""font-size: 50px;"">+</p>","null","html-keyboard-response","288","2.1.0","416176","J=YES, F=NO","ze8w5mnr0a","0","85","85","85","","","","","","","","","","","","","","","",""
"null","audio/beep-329314.mp3","null","audio-keyboard-response","289","2.1.0","417711","J=YES, F=NO","ze8w5mnr0a","0","85","85","85","","","","","","","","","","","","","","","",""
"null","audio/pig.wav","null","audio-keyboard-response","290","2.1.0","418061","J=YES, F=NO","ze8w5mnr0a","0","85","85","85","","","","","","","","","","","","","","","",""
"413","
          <p id=""word"" style=""font-size: 40px;"">tirlike</p>
          <p style=""font-size: 16px;"">J = YES &nbsp;&nbsp;&nbsp; F = NO</p>
        ","j","html-keyboard-response","291","2.1.0","418475","J=YES, F=NO","ze8w5mnr0a","0","85","85","85","","","","","","","","","tirlike","pig","pseudoword","pseudoword","f","false","",""
"null","<p style=""font-size: 50px;"">+</p>","null","html-keyboard-response","292","2.1.0","418779","J=YES, F=NO","ze8w5mnr0a","0","85","85","85","","","","","","","","","","","","","","","",""
"null","audio/beep-329314.mp3","null","audio-keyboard-response","293","2.1.0","420310","J=YES, F=NO","ze8w5mnr0a","0","85","85","85","","","","","","","","","","","","","","","",""
"null","audio/tomato.wav","null","audio-keyboard-response","294","2.1.0","420960","J=YES, F=NO","ze8w5mnr0a","0","85","85","85","","","","","","","","","","","","","","","",""
"706","
          <p id=""word"" style=""font-size: 40px;"">grow</p>
          <p style=""font-size: 16px;"">J = YES &nbsp;&nbsp;&nbsp; F = NO</p>
        ","j","html-keyboard-response","295","2.1.0","421667","J=YES, F=NO","ze8w5mnr0a","0","85","85","85","","","","","","","","","grow","tomato","literal","experimental","j","true","",""
"6944","<p>Excellent! You have finished block 2 of 8.</p>
                     <p>Feel free to take a 30 second break.</p>
                     <p>Press any key when you're ready to continue.</p>","j","html-keyboard-response","296","2.1.0","428612","J=YES, F=NO","ze8w5mnr0a","0","85","85","85","","","","","","","","","","","","","","","",""
"727","<p>Starting main block 3 of 8. Press any key to continue.</p>","j","html-keyboard-response","297","2.1.0","429340","J=YES, F=NO","ze8w5mnr0a","0","85","85","85","","","","","","","","","","","","","","","",""
"null","<p style=""font-size: 50px;"">+</p>","null","html-keyboard-response","298","2.1.0","429648","J=YES, F=NO","ze8w5mnr0a","0","85","85","85","","","","","","","","","","","","","","","",""
"null","audio/beep-329314.mp3","null","audio-keyboard-response","299","2.1.0","431171","J=YES, F=NO","ze8w5mnr0a","0","85","85","85","","","","","","","","","","","","","","","",""
"null","audio/prisoner.wav","null","audio-keyboard-response","300","2.1.0","431791","J=YES, F=NO","ze8w5mnr0a","0","85","85","85","","","","","","","","","","","","","","","",""
"683","
          <p id=""word"" style=""font-size: 40px;"">egotian</p>
          <p style=""font-size: 16px;"">J = YES &nbsp;&nbsp;&nbsp; F = NO</p>
        ","f","html-keyboard-response","301","2.1.0","432475","J=YES, F=NO","ze8w5mnr0a","0","85","85","85","","","","","","","","","egotian","prisoner","pseudoword","pseudoword","f","true","",""
"null","<p style=""font-size: 50px;"">+</p>","null","html-keyboard-response","302","2.1.0","432788","J=YES, F=NO","ze8w5mnr0a","0","85","85","85","","","","","","","","","","","","","","","",""
"null","audio/beep-329314.mp3","null","audio-keyboard-response","303","2.1.0","434311","J=YES, F=NO","ze8w5mnr0a","0","85","85","85","","","","","","","","","","","","","","","",""
"null","audio/test1.wav","null","audio-keyboard-response","304","2.1.0","434911","J=YES, F=NO","ze8w5mnr0a","0","85","85","85","","","","","","","","","","","","","","","",""
"779","
          <p id=""word"" style=""font-size: 40px;"">run</p>
          <p style=""font-size: 16px;"">J = YES &nbsp;&nbsp;&nbsp; F = NO</p>
        ","j","html-keyboard-response","305","2.1.0","435691","J=YES, F=NO","ze8w5mnr0a","0","85","85","85","","","","","","","","","run","test1","metaphor","experimental","j","true","",""
"null","<p style=""font-size: 50px;"">+</p>","null","html-keyboard-response","306","2.1.0","436005","J=YES, F=NO","ze8w5mnr0a","0","85","85","85","","","","","","","","","","","","","","","",""
"null","audio/beep-329314.mp3","null","audio-keyboard-response","307","2.1.0","437531","J=YES, F=NO","ze8w5mnr0a","0","85","85","85","","","","","","","","","","","","","","","",""
"null","audio/gossip1.wav","null","audio-keyboard-response","308","2.1.0","438291","J=YES, F=NO","ze8w5mnr0a","0","85","85","85","","","","","","","","","","","","","","","",""
"504","
          <p id=""word"" style=""font-size: 40px;"">wrestle</p>
          <p style=""font-size: 16px;"">J = YES &nbsp;&nbsp;&nbsp; F = NO</p>
        ","j","html-keyboard-response","309","2.1.0","438796","J=YES, F=NO","ze8w5mnr0a","0","85","85","85","","","","","","","","","wrestle","gossip1","unrelated","experimental","j","true","",""
"null","<p style=""font-size: 50px;"">+</p>","null","html-keyboard-response","310","2.1.0","439099","J=YES, F=NO","ze8w5mnr0a","0","85","85","85","","","","","","","","","","","","","","","",""
"null","audio/beep-329314.mp3","null","audio-keyboard-response","311","2.1.0","440631","J=YES, F=NO","ze8w5mnr0a","0","85","85","85","","","","","","","","","","","","","","","",""
"null","audio/heart1.wav","null","audio-keyboard-response","312","2.1.0","441391","J=YES, F=NO","ze8w5mnr0a","0","85","85","85","","","","","","","","","","","","","","","",""
"549","
          <p id=""word"" style=""font-size: 40px;"">dralm</p>
          <p style=""font-size: 16px;"">J = YES &nbsp;&nbsp;&nbsp; F = NO</p>
        ","f","html-keyboard-response","313","2.1.0","441940","J=YES, F=NO","ze8w5mnr0a","0","85","85","85","","","","","","","","","dralm","heart1","pseudoword","pseudoword","f","true","",""
"null","<p style=""font-size: 50px;"">+</p>","null","html-keyboard-response","314","2.1.0","442245","J=YES, F=NO","ze8w5mnr0a","0","85","85","85","","","","","","","","","","","","","","","",""
"null","audio/beep-329314.mp3","null","audio-keyboard-response","315","2.1.0","443771","J=YES, F=NO","ze8w5mnr0a","0","85","85","85","","","","","","","","","","","","","","","",""
"null","audio/grass.wav","null","audio-keyboard-response","316","2.1.0","444550","J=YES, F=NO","ze8w5mnr0a","0","85","85","85","","","","","","","","","","","","","","","",""
"629","
          <p id=""word"" style=""font-size: 40px;"">milames</p>
          <p style=""font-size: 16px;"">J = YES &nbsp;&nbsp;&nbsp; F = NO</p>
        ","f","html-keyboard-response","317","2.1.0","445179","J=YES, F=NO","ze8w5mnr0a","0","85","85","85","","","","","","","","","milames","grass","pseudoword","pseudoword","f","true","",""
"null","<p style=""font-size: 50px;"">+</p>","null","html-keyboard-response","318","2.1.0","445483","J=YES, F=NO","ze8w5mnr0a","0","85","85","85","","","","","","","","","","","","","","","",""
"null","audio/beep-329314.mp3","null","audio-keyboard-response","319","2.1.0","447011","J=YES, F=NO","ze8w5mnr0a","0","85","85","85","","","","","","","","","","","","","","","",""
"null","audio/sugar1.wav","null","audio-keyboard-response","320","2.1.0","447491","J=YES, F=NO","ze8w5mnr0a","0","85","85","85","","","","","","","","","","","","","","","",""
"599","
          <p id=""word"" style=""font-size: 40px;"">glung</p>
          <p style=""font-size: 16px;"">J = YES &nbsp;&nbsp;&nbsp; F = NO</p>
        ","f","html-keyboard-response","321","2.1.0","448091","J=YES, F=NO","ze8w5mnr0a","0","85","85","85","","","","","","","","","glung","sugar1","pseudoword","pseudoword","f","true","",""
"null","<p style=""font-size: 50px;"">+</p>","null","html-keyboard-response","322","2.1.0","448406","J=YES, F=NO","ze8w5mnr0a","0","85","85","85","","","","","","","","","","","","","","","",""
"null","audio/beep-329314.mp3","null","audio-keyboard-response","323","2.1.0","449931","J=YES, F=NO","ze8w5mnr0a","0","85","85","85","","","","","","","","","","","","","","","",""
"null","audio/flaw.wav","null","audio-keyboard-response","324","2.1.0","450690","J=YES, F=NO","ze8w5mnr0a","0","85","85","85","","","","","","","","","","","","","","","",""
"552","
          <p id=""word"" style=""font-size: 40px;"">thwool</p>
          <p style=""font-size: 16px;"">J = YES &nbsp;&nbsp;&nbsp; F = NO</p>
        ","f","html-keyboard-response","325","2.1.0","451243","J=YES, F=NO","ze8w5mnr0a","0","85","85","85","","","","","","","","","thwool","flaw","pseudoword","pseudoword","f","true","",""
"null","<p style=""font-size: 50px;"">+</p>","null","html-keyboard-response","326","2.1.0","451546","J=YES, F=NO","ze8w5mnr0a","0","85","85","85","","","","","","","","","","","","","","","",""
"null","audio/beep-329314.mp3","null","audio-keyboard-response","327","2.1.0","453071","J=YES, F=NO","ze8w5mnr0a","0","85","85","85","","","","","","","","","","","","","","","",""
"null","audio/bottle.wav","null","audio-keyboard-response","328","2.1.0","453530","J=YES, F=NO","ze8w5mnr0a","0","85","85","85","","","","","","","","","","","","","","","",""
"456","
          <p id=""word"" style=""font-size: 40px;"">open</p>
          <p style=""font-size: 16px;"">J = YES &nbsp;&nbsp;&nbsp; F = NO</p>
        ","j","html-keyboard-response","329","2.1.0","453987","J=YES, F=NO","ze8w5mnr0a","0","85","85","85","","","","","","","","","open","bottle","literal","experimental","j","true","",""
"null","<p style=""font-size: 50px;"">+</p>","null","html-keyboard-response","330","2.1.0","454290","J=YES, F=NO","ze8w5mnr0a","0","85","85","85","","","","","","","","","","","","","","","",""
"null","audio/beep-329314.mp3","null","audio-keyboard-response","331","2.1.0","455831","J=YES, F=NO","ze8w5mnr0a","0","85","85","85","","","","","","","","","","","","","","","",""
"null","audio/key1.wav","null","audio-keyboard-response","332","2.1.0","456191","J=YES, F=NO","ze8w5mnr0a","0","85","85","85","","","","","","","","","","","","","","","",""
"635","
          <p id=""word"" style=""font-size: 40px;"">sminsh</p>
          <p style=""font-size: 16px;"">J = YES &nbsp;&nbsp;&nbsp; F = NO</p>
        ","f","html-keyboard-response","333","2.1.0","456827","J=YES, F=NO","ze8w5mnr0a","0","85","85","85","","","","","","","","","sminsh","key1","pseudoword","pseudoword","f","true","",""
"null","<p style=""font-size: 50px;"">+</p>","null","html-keyboard-response","334","2.1.0","457129","J=YES, F=NO","ze8w5mnr0a","0","85","85","85","","","","","","","","","","","","","","","",""
"null","audio/beep-329314.mp3","null","audio-keyboard-response","335","2.1.0","458671","J=YES, F=NO","ze8w5mnr0a","0","85","85","85","","","","","","","","","","","","","","","",""
"null","audio/camera1.wav","null","audio-keyboard-response","336","2.1.0","459151","J=YES, F=NO","ze8w5mnr0a","0","85","85","85","","","","","","","","","","","","","","","",""
"484","
          <p id=""word"" style=""font-size: 40px;"">bring</p>
          <p style=""font-size: 16px;"">J = YES &nbsp;&nbsp;&nbsp; F = NO</p>
        ","j","html-keyboard-response","337","2.1.0","459637","J=YES, F=NO","ze8w5mnr0a","0","85","85","85","","","","","","","","","bring","camera1","literal","experimental","j","true","",""
"null","<p style=""font-size: 50px;"">+</p>","null","html-keyboard-response","338","2.1.0","459941","J=YES, F=NO","ze8w5mnr0a","0","85","85","85","","","","","","","","","","","","","","","",""
"null","audio/beep-329314.mp3","null","audio-keyboard-response","339","2.1.0","461471","J=YES, F=NO","ze8w5mnr0a","0","85","85","85","","","","","","","","","","","","","","","",""
"null","audio/uncle1.wav","null","audio-keyboard-response","340","2.1.0","461931","J=YES, F=NO","ze8w5mnr0a","0","85","85","85","","","","","","","","","","","","","","","",""
"584","
          <p id=""word"" style=""font-size: 40px;"">dramble</p>
          <p style=""font-size: 16px;"">J = YES &nbsp;&nbsp;&nbsp; F = NO</p>
        ","f","html-keyboard-response","341","2.1.0","462515","J=YES, F=NO","ze8w5mnr0a","0","85","85","85","","","","","","","","","dramble","uncle1","pseudoword","pseudoword","f","true","",""
"null","<p style=""font-size: 50px;"">+</p>","null","html-keyboard-response","342","2.1.0","462820","J=YES, F=NO","ze8w5mnr0a","0","85","85","85","","","","","","","","","","","","","","","",""
"null","audio/beep-329314.mp3","null","audio-keyboard-response","343","2.1.0","464351","J=YES, F=NO","ze8w5mnr0a","0","85","85","85","","","","","","","","","","","","","","","",""
"null","audio/plot1.wav","null","audio-keyboard-response","344","2.1.0","465050","J=YES, F=NO","ze8w5mnr0a","0","85","85","85","","","","","","","","","","","","","","","",""
"609","
          <p id=""word"" style=""font-size: 40px;"">glenter</p>
          <p style=""font-size: 16px;"">J = YES &nbsp;&nbsp;&nbsp; F = NO</p>
        ","f","html-keyboard-response","345","2.1.0","465660","J=YES, F=NO","ze8w5mnr0a","0","85","85","85","","","","","","","","","glenter","plot1","pseudoword","pseudoword","f","true","",""
"null","<p style=""font-size: 50px;"">+</p>","null","html-keyboard-response","346","2.1.0","465974","J=YES, F=NO","ze8w5mnr0a","0","85","85","85","","","","","","","","","","","","","","","",""
"null","audio/beep-329314.mp3","null","audio-keyboard-response","347","2.1.0","467509","J=YES, F=NO","ze8w5mnr0a","0","85","85","85","","","","","","","","","","","","","","","",""
"null","audio/desire.wav","null","audio-keyboard-response","348","2.1.0","468251","J=YES, F=NO","ze8w5mnr0a","0","85","85","85","","","","","","","","","","","","","","","",""
"696","
          <p id=""word"" style=""font-size: 40px;"">nophed</p>
          <p style=""font-size: 16px;"">J = YES &nbsp;&nbsp;&nbsp; F = NO</p>
        ","f","html-keyboard-response","349","2.1.0","468948","J=YES, F=NO","ze8w5mnr0a","0","85","85","85","","","","","","","","","nophed","desire","pseudoword","pseudoword","f","true","",""
"null","<p style=""font-size: 50px;"">+</p>","null","html-keyboard-response","350","2.1.0","469262","J=YES, F=NO","ze8w5mnr0a","0","85","85","85","","","","","","","","","","","","","","","",""
"null","audio/beep-329314.mp3","null","audio-keyboard-response","351","2.1.0","470791","J=YES, F=NO","ze8w5mnr0a","0","85","85","85","","","","","","","","","","","","","","","",""
"null","audio/weight1.wav","null","audio-keyboard-response","352","2.1.0","471451","J=YES, F=NO","ze8w5mnr0a","0","85","85","85","","","","","","","","","","","","","","","",""
"688","
          <p id=""word"" style=""font-size: 40px;"">crimsh</p>
          <p style=""font-size: 16px;"">J = YES &nbsp;&nbsp;&nbsp; F = NO</p>
        ","f","html-keyboard-response","353","2.1.0","472140","J=YES, F=NO","ze8w5mnr0a","0","85","85","85","","","","","","","","","crimsh","weight1","pseudoword","pseudoword","f","true","",""
"null","<p style=""font-size: 50px;"">+</p>","null","html-keyboard-response","354","2.1.0","472449","J=YES, F=NO","ze8w5mnr0a","0","85","85","85","","","","","","","","","","","","","","","",""
"null","audio/beep-329314.mp3","null","audio-keyboard-response","355","2.1.0","473971","J=YES, F=NO","ze8w5mnr0a","0","85","85","85","","","","","","","","","","","","","","","",""
"null","audio/farm1.wav","null","audio-keyboard-response","356","2.1.0","474671","J=YES, F=NO","ze8w5mnr0a","0","85","85","85","","","","","","","","","","","","","","","",""
"475","
          <p id=""word"" style=""font-size: 40px;"">catch</p>
          <p style=""font-size: 16px;"">J = YES &nbsp;&nbsp;&nbsp; F = NO</p>
        ","j","html-keyboard-response","357","2.1.0","475147","J=YES, F=NO","ze8w5mnr0a","0","85","85","85","","","","","","","","","catch","farm1","unrelated","experimental","j","true","",""
"null","<p style=""font-size: 50px;"">+</p>","null","html-keyboard-response","358","2.1.0","475458","J=YES, F=NO","ze8w5mnr0a","0","85","85","85","","","","","","","","","","","","","","","",""
"null","audio/beep-329314.mp3","null","audio-keyboard-response","359","2.1.0","476990","J=YES, F=NO","ze8w5mnr0a","0","85","85","85","","","","","","","","","","","","","","","",""
"null","audio/news.wav","null","audio-keyboard-response","360","2.1.0","477631","J=YES, F=NO","ze8w5mnr0a","0","85","85","85","","","","","","","","","","","","","","","",""
"531","
          <p id=""word"" style=""font-size: 40px;"">digest</p>
          <p style=""font-size: 16px;"">J = YES &nbsp;&nbsp;&nbsp; F = NO</p>
        ","j","html-keyboard-response","361","2.1.0","478163","J=YES, F=NO","ze8w5mnr0a","0","85","85","85","","","","","","","","","digest","news","metaphor","experimental","j","true","",""
"2112","<p>Excellent! You have finished block 3 of 8.</p>
                     <p>Feel free to take a 30 second break.</p>
                     <p>Press any key when you're ready to continue.</p>","j","html-keyboard-response","362","2.1.0","480275","J=YES, F=NO","ze8w5mnr0a","0","85","85","85","","","","","","","","","","","","","","","",""
"399","<p>Starting main block 4 of 8. Press any key to continue.</p>","j","html-keyboard-response","363","2.1.0","480675","J=YES, F=NO","ze8w5mnr0a","0","85","85","85","","","","","","","","","","","","","","","",""
"null","<p style=""font-size: 50px;"">+</p>","null","html-keyboard-response","364","2.1.0","480980","J=YES, F=NO","ze8w5mnr0a","0","85","85","85","","","","","","","","","","","","","","","",""
"null","audio/beep-329314.mp3","null","audio-keyboard-response","365","2.1.0","482511","J=YES, F=NO","ze8w5mnr0a","0","85","85","85","","","","","","","","","","","","","","","",""
"null","audio/account1.wav","null","audio-keyboard-response","366","2.1.0","483331","J=YES, F=NO","ze8w5mnr0a","0","85","85","85","","","","","","","","","","","","","","","",""
"352","
          <p id=""word"" style=""font-size: 40px;"">paint</p>
          <p style=""font-size: 16px;"">J = YES &nbsp;&nbsp;&nbsp; F = NO</p>
        ","j","html-keyboard-response","367","2.1.0","483683","J=YES, F=NO","ze8w5mnr0a","0","85","85","85","","","","","","","","","paint","account1","filler","filler","j","true","",""
"null","<p style=""font-size: 50px;"">+</p>","null","html-keyboard-response","368","2.1.0","483993","J=YES, F=NO","ze8w5mnr0a","0","85","85","85","","","","","","","","","","","","","","","",""
"null","audio/beep-329314.mp3","null","audio-keyboard-response","369","2.1.0","485531","J=YES, F=NO","ze8w5mnr0a","0","85","85","85","","","","","","","","","","","","","","","",""
"null","audio/gossip1.wav","null","audio-keyboard-response","370","2.1.0","486151","J=YES, F=NO","ze8w5mnr0a","0","85","85","85","","","","","","","","","","","","","","","",""
"548","
          <p id=""word"" style=""font-size: 40px;"">camerish</p>
          <p style=""font-size: 16px;"">J = YES &nbsp;&nbsp;&nbsp; F = NO</p>
        ","f","html-keyboard-response","371","2.1.0","486700","J=YES, F=NO","ze8w5mnr0a","0","85","85","85","","","","","","","","","camerish","gossip1","pseudoword","pseudoword","f","true","",""
"null","<p style=""font-size: 50px;"">+</p>","null","html-keyboard-response","372","2.1.0","487004","J=YES, F=NO","ze8w5mnr0a","0","85","85","85","","","","","","","","","","","","","","","",""
"null","audio/beep-329314.mp3","null","audio-keyboard-response","373","2.1.0","488531","J=YES, F=NO","ze8w5mnr0a","0","85","85","85","","","","","","","","","","","","","","","",""
"null","audio/terrain.wav","null","audio-keyboard-response","374","2.1.0","489251","J=YES, F=NO","ze8w5mnr0a","0","85","85","85","","","","","","","","","","","","","","","",""
"408","
          <p id=""word"" style=""font-size: 40px;"">twist</p>
          <p style=""font-size: 16px;"">J = YES &nbsp;&nbsp;&nbsp; F = NO</p>
        ","j","html-keyboard-response","375","2.1.0","489660","J=YES, F=NO","ze8w5mnr0a","0","85","85","85","","","","","","","","","twist","terrain","filler","filler","j","true","",""
"null","<p style=""font-size: 50px;"">+</p>","null","html-keyboard-response","376","2.1.0","489966","J=YES, F=NO","ze8w5mnr0a","0","85","85","85","","","","","","","","","","","","","","","",""
"null","audio/beep-329314.mp3","null","audio-keyboard-response","377","2.1.0","491491","J=YES, F=NO","ze8w5mnr0a","0","85","85","85","","","","","","","","","","","","","","","",""
"null","audio/effort.wav","null","audio-keyboard-response","378","2.1.0","492071","J=YES, F=NO","ze8w5mnr0a","0","85","85","85","","","","","","","","","","","","","","","",""
"787","
          <p id=""word"" style=""font-size: 40px;"">whonk</p>
          <p style=""font-size: 16px;"">J = YES &nbsp;&nbsp;&nbsp; F = NO</p>
        ","f","html-keyboard-response","379","2.1.0","492859","J=YES, F=NO","ze8w5mnr0a","0","85","85","85","","","","","","","","","whonk","effort","pseudoword","pseudoword","f","true","",""
"null","<p style=""font-size: 50px;"">+</p>","null","html-keyboard-response","380","2.1.0","493174","J=YES, F=NO","ze8w5mnr0a","0","85","85","85","","","","","","","","","","","","","","","",""
"null","audio/beep-329314.mp3","null","audio-keyboard-response","381","2.1.0","494711","J=YES, F=NO","ze8w5mnr0a","0","85","85","85","","","","","","","","","","","","","","","",""
"null","audio/van1.wav","null","audio-keyboard-response","382","2.1.0","495231","J=YES, F=NO","ze8w5mnr0a","0","85","85","85","","","","","","","","","","","","","","","",""
"500","
          <p id=""word"" style=""font-size: 40px;"">push</p>
          <p style=""font-size: 16px;"">J = YES &nbsp;&nbsp;&nbsp; F = NO</p>
        ","j","html-keyboard-response","383","2.1.0","495732","J=YES, F=NO","ze8w5mnr0a","0","85","85","85","","","","","","","","","push","van1","filler","filler","j","true","",""
"null","<p style=""font-size: 50px;"">+</p>","null","html-keyboard-response","384","2.1.0","496042","J=YES, F=NO","ze8w5mnr0a","0","85","85","85","","","","","","","","","","","","","","","",""
"null","audio/beep-329314.mp3","null","audio-keyboard-response","385","2.1.0","497571","J=YES, F=NO","ze8w5mnr0a","0","85","85","85","","","","","","","","","","","","","","","",""
"null","audio/novel.wav","null","audio-keyboard-response","386","2.1.0","498211","J=YES, F=NO","ze8w5mnr0a","0","85","85","85","","","","","","","","","","","","","","","",""
"400","
          <p id=""word"" style=""font-size: 40px;"">type</p>
          <p style=""font-size: 16px;"">J = YES &nbsp;&nbsp;&nbsp; F = NO</p>
        ","j","html-keyboard-response","387","2.1.0","498612","J=YES, F=NO","ze8w5mnr0a","0","85","85","85","","","","","","","","","type","novel","filler","filler","j","true","",""
"null","<p style=""font-size: 50px;"">+</p>","null","html-keyboard-response","388","2.1.0","498927","J=YES, F=NO","ze8w5mnr0a","0","85","85","85","","","","","","","","","","","","","","","",""
"null","audio/beep-329314.mp3","null","audio-keyboard-response","389","2.1.0","500451","J=YES, F=NO","ze8w5mnr0a","0","85","85","85","","","","","","","","","","","","","","","",""
"null","audio/cave1.wav","null","audio-keyboard-response","390","2.1.0","501151","J=YES, F=NO","ze8w5mnr0a","0","85","85","85","","","","","","","","","","","","","","","",""
"588","
          <p id=""word"" style=""font-size: 40px;"">blacket</p>
          <p style=""font-size: 16px;"">J = YES &nbsp;&nbsp;&nbsp; F = NO</p>
        ","f","html-keyboard-response","391","2.1.0","501740","J=YES, F=NO","ze8w5mnr0a","0","85","85","85","","","","","","","","","blacket","cave1","pseudoword","pseudoword","f","true","",""
