"rt","stimulus","response","trial_type","trial_index","plugin_version","time_elapsed","response_mapping","subject_id","list_index","lextale_score","lextale_word_score","lextale_nonword_score","success","timeout","failed_images","failed_audio","failed_video","task","isWord","isDummy","target","prime","prime_type","stimulus_type","correct_response","correct","section","question_order"
"168700","
    <div style=""max-width: 800px; margin: auto; text-align: left;"">
      <h2>STANFORD UNIVERSITY</h2>
      <h3>Research Information Sheet</h3>
      <p><strong>Protocol Director:</strong> Robert Hawkins<br>
      <strong>Protocol Title:</strong> Communication and social cognition in natural audiovisual contexts<br>
      <strong>IRB#:</strong> 77226</p>

      <p><strong>DESCRIPTION:</strong> You are invited to participate in a research study about language and communication. The purpose of the research is to understand how you interact and communicate with other people in naturalistic settings as a fluent English speaker. This research will be conducted through the Prolific platform, including participants from the US, UK, and Canada. If you decide to participate in this research, you will play a communication game in a group with one or more partners.</p>

      <p><strong>TIME INVOLVEMENT:</strong> The task will last the amount of time advertised on Prolific. You are free to withdraw from the study at any time.</p>

      <p><strong>RISKS AND BENEFITS:</strong> You may become frustrated if your partner gets distracted, or experience discomfort if other participants in your group send text that is inappropriate for the task. We ask you to please be respectful of other participants you might be interacting with to mitigate these risks. You may also experience discomfort when being asked to discuss or challenge emotionally salient political beliefs. Study data will be stored securely, in compliance with Stanford University standards, minimizing the risk of confidentiality breach. This study advances our scientific understanding of how people communicate and collaborate in naturalistic settings. This study may lead to further insights about what can go wrong in teamwork, suggest potential interventions to overcome these barriers, and help to develop assistive technologies that collaborate with human partners. We cannot and do not guarantee or promise that you will receive any benefits from this study.</p>

      <p><strong>PAYMENTS:</strong> You will receive payment in the amount advertised on Prolific. If you do not complete this study, you will receive prorated payment based on the time that you have spent. Additionally, you may be eligible for bonus payments as described in the instructions.</p>

      <p><strong>PARTICIPANT’S RIGHTS:</strong> If you have read this form and have decided to participate in this project, please understand your participation is voluntary and you have the right to withdraw your consent or discontinue participation at any time without penalty or loss of benefits to which you are otherwise entitled. The alternative is not to participate. You have the right to refuse to answer particular questions. The results of this research study may be presented at scientific or professional meetings or published in scientific journals. Your individual privacy will be maintained in all published and written data resulting from the study. In accordance with scientific norms, the data from this study may be used or shared with other researchers for future research (after removing personally identifying information) without additional consent from you.</p>

      <p><strong>CONTACT INFORMATION:</strong><br>
      Questions: If you have any questions, concerns or complaints about this research, its procedures, risks and benefits, contact the Protocol Director, Robert Hawkins (<a href=""mailto:rdhawkins@stanford.edu"">rdhawkins@stanford.edu</a>, 217-549-6923).<br>
      Independent Contact: If you are not satisfied with how this study is being conducted, or if you have any concerns, complaints, or general questions about the research or your rights as a participant, please contact the Stanford Institutional Review Board (IRB) to speak to someone independent of the research team at 650-723-2480 or toll free at 1-866-680-2906, or email at <a href=""mailto:irbnon-med@stanford.edu"">irbnon-med@stanford.edu</a>. You can also write to the Stanford IRB, Stanford University, 1705 El Camino Real, Palo Alto, CA 94306.</p>

      <p><strong>Please save or print a copy of this page for your records.</strong></p>
      <p>If you agree to participate in this research, click ""Continue"" below.</p>
    </div>
  ","0","html-button-response","0","2.1.0","168712","F=YES, J=NO","zmdztcv1w5","2","71","68","75","","","","","","","","","","","","","","","",""
"14544","
    <div style=""max-width: 800px; margin: auto; text-align: left;"">
      <h2>Welcome!</h2>
      <p>Thank you for participating in this study. The experiment consists of three parts:</p>
      <ol>
        <li>An English vocabulary test</li>
        <li>A main task in which you will hear and see words, and decide whether the written word is a real English word</li>
        <li>A brief survey about your background</li>
      </ol>
      <p>Each part will be introduced before it begins.</p>
      <p>Please make sure you are in a quiet environment and can hear audio clearly for the final task.</p>
      <p style=""margin-top: 2em;"">Press any key to begin.</p>
    </div>
  ","d","html-keyboard-response","1","2.1.0","183257","F=YES, J=NO","zmdztcv1w5","2","71","68","75","","","","","","","","","","","","","","","",""
"","","","preload","2","2.1.0","187609","F=YES, J=NO","zmdztcv1w5","2","71","68","75","true","false","[]","[]","[]","","","","","","","","","","",""
"7958","
    <div style=""max-width: 800px; margin: auto; text-align: left;"">
      <h2>Part 1: Vocabulary Test</h2>
      <p>You will now complete the first part of the study: a short English vocabulary test.</p>
      <p>This test is called <strong>LexTALE</strong> and helps us get a general sense of your English proficiency.</p>
      <p style=""margin-top: 2em;"">Press any key to continue.</p>
    </div>
  ","d","html-keyboard-response","3","2.1.0","195569","F=YES, J=NO","zmdztcv1w5","2","71","68","75","","","","","","","","","","","","","","","",""
"16578","
    <div style=""max-width: 800px; margin: auto; text-align: left;"">
      <h2>LexTALE Vocabulary Test</h2>
      <p>In this test, you will see a series of letter strings—one at a time.</p>
      <p>Your task is to decide whether each string is a real English word.</p>
      <p><strong>Key responses:</strong></p>
      <ul>
        <li><strong>F</strong> = YES (real English word)</li>
        <li><strong>J</strong> = NO (not a real English word)</li>
      </ul>
      <p>There is no time limit, but please try to be accurate.</p>
      <p style=""margin-top: 2em;"">Press any key to begin.</p>
    </div>
  ","w","html-keyboard-response","4","2.1.0","212148","F=YES, J=NO","zmdztcv1w5","2","71","68","75","","","","","","","","","","","","","","","",""
"5249","
  <p style=""font-size: 40px;"">platery</p>
  <p style=""font-size: 16px;"">F = YES &nbsp;&nbsp;&nbsp; J = NO</p>
","f","html-keyboard-response","5","2.1.0","217398","F=YES, J=NO","zmdztcv1w5","2","71","68","75","","","","","","lextale","false","true","","","","","","","",""
"2904","
  <p style=""font-size: 40px;"">denial</p>
  <p style=""font-size: 16px;"">F = YES &nbsp;&nbsp;&nbsp; J = NO</p>
","f","html-keyboard-response","6","2.1.0","220302","F=YES, J=NO","zmdztcv1w5","2","71","68","75","","","","","","lextale","true","true","","","","","","","",""
"2154","
  <p style=""font-size: 40px;"">marrit</p>
  <p style=""font-size: 16px;"">F = YES &nbsp;&nbsp;&nbsp; J = NO</p>
","f","html-keyboard-response","7","2.1.0","222458","F=YES, J=NO","zmdztcv1w5","2","71","68","75","","","","","","lextale","false","true","","","","","","","",""
"2156","
  <p style=""font-size: 40px;"">bottle</p>
  <p style=""font-size: 16px;"">F = YES &nbsp;&nbsp;&nbsp; J = NO</p>
","f","html-keyboard-response","8","2.1.0","224614","F=YES, J=NO","zmdztcv1w5","2","71","68","75","","","","","","lextale","true","false","","","","","","","",""
"3705","
  <p style=""font-size: 40px;"">birst</p>
  <p style=""font-size: 16px;"">F = YES &nbsp;&nbsp;&nbsp; J = NO</p>
","f","html-keyboard-response","9","2.1.0","228319","F=YES, J=NO","zmdztcv1w5","2","71","68","75","","","","","","lextale","false","false","","","","","","","",""
"1034","
  <p style=""font-size: 40px;"">envy</p>
  <p style=""font-size: 16px;"">F = YES &nbsp;&nbsp;&nbsp; J = NO</p>
","f","html-keyboard-response","10","2.1.0","229353","F=YES, J=NO","zmdztcv1w5","2","71","68","75","","","","","","lextale","true","false","","","","","","","",""
"2652","
  <p style=""font-size: 40px;"">brang</p>
  <p style=""font-size: 16px;"">F = YES &nbsp;&nbsp;&nbsp; J = NO</p>
","j","html-keyboard-response","11","2.1.0","232006","F=YES, J=NO","zmdztcv1w5","2","71","68","75","","","","","","lextale","false","false","","","","","","","",""
"833","
  <p style=""font-size: 40px;"">huge</p>
  <p style=""font-size: 16px;"">F = YES &nbsp;&nbsp;&nbsp; J = NO</p>
","f","html-keyboard-response","12","2.1.0","232839","F=YES, J=NO","zmdztcv1w5","2","71","68","75","","","","","","lextale","true","false","","","","","","","",""
"1201","
  <p style=""font-size: 40px;"">plove</p>
  <p style=""font-size: 16px;"">F = YES &nbsp;&nbsp;&nbsp; J = NO</p>
","j","html-keyboard-response","13","2.1.0","234040","F=YES, J=NO","zmdztcv1w5","2","71","68","75","","","","","","lextale","false","false","","","","","","","",""
"772","
  <p style=""font-size: 40px;"">border</p>
  <p style=""font-size: 16px;"">F = YES &nbsp;&nbsp;&nbsp; J = NO</p>
","f","html-keyboard-response","14","2.1.0","234814","F=YES, J=NO","zmdztcv1w5","2","71","68","75","","","","","","lextale","true","false","","","","","","","",""
"930","
  <p style=""font-size: 40px;"">flimsy</p>
  <p style=""font-size: 16px;"">F = YES &nbsp;&nbsp;&nbsp; J = NO</p>
","f","html-keyboard-response","15","2.1.0","235744","F=YES, J=NO","zmdztcv1w5","2","71","68","75","","","","","","lextale","true","false","","","","","","","",""
"992","
  <p style=""font-size: 40px;"">drain</p>
  <p style=""font-size: 16px;"">F = YES &nbsp;&nbsp;&nbsp; J = NO</p>
","f","html-keyboard-response","16","2.1.0","236736","F=YES, J=NO","zmdztcv1w5","2","71","68","75","","","","","","lextale","true","false","","","","","","","",""
"1660","
  <p style=""font-size: 40px;"">twindle</p>
  <p style=""font-size: 16px;"">F = YES &nbsp;&nbsp;&nbsp; J = NO</p>
","f","html-keyboard-response","17","2.1.0","238397","F=YES, J=NO","zmdztcv1w5","2","71","68","75","","","","","","lextale","false","false","","","","","","","",""
"883","
  <p style=""font-size: 40px;"">propose</p>
  <p style=""font-size: 16px;"">F = YES &nbsp;&nbsp;&nbsp; J = NO</p>
","f","html-keyboard-response","18","2.1.0","239281","F=YES, J=NO","zmdztcv1w5","2","71","68","75","","","","","","lextale","true","false","","","","","","","",""
"949","
  <p style=""font-size: 40px;"">forlay</p>
  <p style=""font-size: 16px;"">F = YES &nbsp;&nbsp;&nbsp; J = NO</p>
","j","html-keyboard-response","19","2.1.0","240230","F=YES, J=NO","zmdztcv1w5","2","71","68","75","","","","","","lextale","false","false","","","","","","","",""
"1038","
  <p style=""font-size: 40px;"">tenant</p>
  <p style=""font-size: 16px;"">F = YES &nbsp;&nbsp;&nbsp; J = NO</p>
","f","html-keyboard-response","20","2.1.0","241270","F=YES, J=NO","zmdztcv1w5","2","71","68","75","","","","","","lextale","true","false","","","","","","","",""
"1155","
  <p style=""font-size: 40px;"">strain</p>
  <p style=""font-size: 16px;"">F = YES &nbsp;&nbsp;&nbsp; J = NO</p>
","f","html-keyboard-response","21","2.1.0","242426","F=YES, J=NO","zmdztcv1w5","2","71","68","75","","","","","","lextale","true","false","","","","","","","",""
"1895","
  <p style=""font-size: 40px;"">holster</p>
  <p style=""font-size: 16px;"">F = YES &nbsp;&nbsp;&nbsp; J = NO</p>
","f","html-keyboard-response","22","2.1.0","244321","F=YES, J=NO","zmdztcv1w5","2","71","68","75","","","","","","lextale","true","false","","","","","","","",""
"907","
  <p style=""font-size: 40px;"">hinder</p>
  <p style=""font-size: 16px;"">F = YES &nbsp;&nbsp;&nbsp; J = NO</p>
","j","html-keyboard-response","23","2.1.0","245228","F=YES, J=NO","zmdztcv1w5","2","71","68","75","","","","","","lextale","true","false","","","","","","","",""
"1165","
  <p style=""font-size: 40px;"">swindle</p>
  <p style=""font-size: 16px;"">F = YES &nbsp;&nbsp;&nbsp; J = NO</p>
","j","html-keyboard-response","24","2.1.0","246393","F=YES, J=NO","zmdztcv1w5","2","71","68","75","","","","","","lextale","true","false","","","","","","","",""
"1428","
  <p style=""font-size: 40px;"">nuder</p>
  <p style=""font-size: 16px;"">F = YES &nbsp;&nbsp;&nbsp; J = NO</p>
","j","html-keyboard-response","25","2.1.0","247823","F=YES, J=NO","zmdztcv1w5","2","71","68","75","","","","","","lextale","false","false","","","","","","","",""
"822","
  <p style=""font-size: 40px;"">pillow</p>
  <p style=""font-size: 16px;"">F = YES &nbsp;&nbsp;&nbsp; J = NO</p>
","f","html-keyboard-response","26","2.1.0","248645","F=YES, J=NO","zmdztcv1w5","2","71","68","75","","","","","","lextale","true","false","","","","","","","",""
"944","
  <p style=""font-size: 40px;"">shumble</p>
  <p style=""font-size: 16px;"">F = YES &nbsp;&nbsp;&nbsp; J = NO</p>
","f","html-keyboard-response","27","2.1.0","249589","F=YES, J=NO","zmdztcv1w5","2","71","68","75","","","","","","lextale","false","false","","","","","","","",""
"730","
  <p style=""font-size: 40px;"">thirst</p>
  <p style=""font-size: 16px;"">F = YES &nbsp;&nbsp;&nbsp; J = NO</p>
","f","html-keyboard-response","28","2.1.0","250319","F=YES, J=NO","zmdztcv1w5","2","71","68","75","","","","","","lextale","true","false","","","","","","","",""
"3790","
  <p style=""font-size: 40px;"">unsail</p>
  <p style=""font-size: 16px;"">F = YES &nbsp;&nbsp;&nbsp; J = NO</p>
","j","html-keyboard-response","29","2.1.0","254109","F=YES, J=NO","zmdztcv1w5","2","71","68","75","","","","","","lextale","false","false","","","","","","","",""
"1029","
  <p style=""font-size: 40px;"">rifle</p>
  <p style=""font-size: 16px;"">F = YES &nbsp;&nbsp;&nbsp; J = NO</p>
","f","html-keyboard-response","30","2.1.0","255138","F=YES, J=NO","zmdztcv1w5","2","71","68","75","","","","","","lextale","true","false","","","","","","","",""
"909","
  <p style=""font-size: 40px;"">mush</p>
  <p style=""font-size: 16px;"">F = YES &nbsp;&nbsp;&nbsp; J = NO</p>
","f","html-keyboard-response","31","2.1.0","256049","F=YES, J=NO","zmdztcv1w5","2","71","68","75","","","","","","lextale","false","false","","","","","","","",""
"1276","
  <p style=""font-size: 40px;"">drench</p>
  <p style=""font-size: 16px;"">F = YES &nbsp;&nbsp;&nbsp; J = NO</p>
","f","html-keyboard-response","32","2.1.0","257325","F=YES, J=NO","zmdztcv1w5","2","71","68","75","","","","","","lextale","true","false","","","","","","","",""
"875","
  <p style=""font-size: 40px;"">snirt</p>
  <p style=""font-size: 16px;"">F = YES &nbsp;&nbsp;&nbsp; J = NO</p>
","j","html-keyboard-response","33","2.1.0","258201","F=YES, J=NO","zmdztcv1w5","2","71","68","75","","","","","","lextale","false","false","","","","","","","",""
"797","
  <p style=""font-size: 40px;"">bitter</p>
  <p style=""font-size: 16px;"">F = YES &nbsp;&nbsp;&nbsp; J = NO</p>
","f","html-keyboard-response","34","2.1.0","258999","F=YES, J=NO","zmdztcv1w5","2","71","68","75","","","","","","lextale","true","false","","","","","","","",""
"2963","
  <p style=""font-size: 40px;"">pliff</p>
  <p style=""font-size: 16px;"">F = YES &nbsp;&nbsp;&nbsp; J = NO</p>
","j","html-keyboard-response","35","2.1.0","261963","F=YES, J=NO","zmdztcv1w5","2","71","68","75","","","","","","lextale","false","false","","","","","","","",""
"691","
  <p style=""font-size: 40px;"">tablet</p>
  <p style=""font-size: 16px;"">F = YES &nbsp;&nbsp;&nbsp; J = NO</p>
","f","html-keyboard-response","36","2.1.0","262655","F=YES, J=NO","zmdztcv1w5","2","71","68","75","","","","","","lextale","true","false","","","","","","","",""
"1068","
  <p style=""font-size: 40px;"">glimmer</p>
  <p style=""font-size: 16px;"">F = YES &nbsp;&nbsp;&nbsp; J = NO</p>
","f","html-keyboard-response","37","2.1.0","263722","F=YES, J=NO","zmdztcv1w5","2","71","68","75","","","","","","lextale","true","false","","","","","","","",""
"1042","
  <p style=""font-size: 40px;"">slink</p>
  <p style=""font-size: 16px;"">F = YES &nbsp;&nbsp;&nbsp; J = NO</p>
","j","html-keyboard-response","38","2.1.0","264764","F=YES, J=NO","zmdztcv1w5","2","71","68","75","","","","","","lextale","true","false","","","","","","","",""
"758","
  <p style=""font-size: 40px;"">clever</p>
  <p style=""font-size: 16px;"">F = YES &nbsp;&nbsp;&nbsp; J = NO</p>
","f","html-keyboard-response","39","2.1.0","265523","F=YES, J=NO","zmdztcv1w5","2","71","68","75","","","","","","lextale","true","false","","","","","","","",""
"1078","
  <p style=""font-size: 40px;"">grum</p>
  <p style=""font-size: 16px;"">F = YES &nbsp;&nbsp;&nbsp; J = NO</p>
","j","html-keyboard-response","40","2.1.0","266603","F=YES, J=NO","zmdztcv1w5","2","71","68","75","","","","","","lextale","false","false","","","","","","","",""
"657","
  <p style=""font-size: 40px;"">string</p>
  <p style=""font-size: 16px;"">F = YES &nbsp;&nbsp;&nbsp; J = NO</p>
","f","html-keyboard-response","41","2.1.0","267261","F=YES, J=NO","zmdztcv1w5","2","71","68","75","","","","","","lextale","true","false","","","","","","","",""
"1614","
  <p style=""font-size: 40px;"">plim</p>
  <p style=""font-size: 16px;"">F = YES &nbsp;&nbsp;&nbsp; J = NO</p>
","j","html-keyboard-response","42","2.1.0","268874","F=YES, J=NO","zmdztcv1w5","2","71","68","75","","","","","","lextale","false","false","","","","","","","",""
"711","
  <p style=""font-size: 40px;"">cable</p>
  <p style=""font-size: 16px;"">F = YES &nbsp;&nbsp;&nbsp; J = NO</p>
","f","html-keyboard-response","43","2.1.0","269586","F=YES, J=NO","zmdztcv1w5","2","71","68","75","","","","","","lextale","true","false","","","","","","","",""
"881","
  <p style=""font-size: 40px;"">shrivel</p>
  <p style=""font-size: 16px;"">F = YES &nbsp;&nbsp;&nbsp; J = NO</p>
","j","html-keyboard-response","44","2.1.0","270467","F=YES, J=NO","zmdztcv1w5","2","71","68","75","","","","","","lextale","true","false","","","","","","","",""
"1340","
  <p style=""font-size: 40px;"">tarnish</p>
  <p style=""font-size: 16px;"">F = YES &nbsp;&nbsp;&nbsp; J = NO</p>
","j","html-keyboard-response","45","2.1.0","271808","F=YES, J=NO","zmdztcv1w5","2","71","68","75","","","","","","lextale","true","false","","","","","","","",""
"1316","
  <p style=""font-size: 40px;"">blim</p>
  <p style=""font-size: 16px;"">F = YES &nbsp;&nbsp;&nbsp; J = NO</p>
","j","html-keyboard-response","46","2.1.0","273124","F=YES, J=NO","zmdztcv1w5","2","71","68","75","","","","","","lextale","false","false","","","","","","","",""
"1229","
  <p style=""font-size: 40px;"">stifle</p>
  <p style=""font-size: 16px;"">F = YES &nbsp;&nbsp;&nbsp; J = NO</p>
","j","html-keyboard-response","47","2.1.0","274354","F=YES, J=NO","zmdztcv1w5","2","71","68","75","","","","","","lextale","true","false","","","","","","","",""
"1393","
  <p style=""font-size: 40px;"">bint</p>
  <p style=""font-size: 16px;"">F = YES &nbsp;&nbsp;&nbsp; J = NO</p>
","j","html-keyboard-response","48","2.1.0","275747","F=YES, J=NO","zmdztcv1w5","2","71","68","75","","","","","","lextale","false","false","","","","","","","",""
"682","
  <p style=""font-size: 40px;"">purple</p>
  <p style=""font-size: 16px;"">F = YES &nbsp;&nbsp;&nbsp; J = NO</p>
","f","html-keyboard-response","49","2.1.0","276429","F=YES, J=NO","zmdztcv1w5","2","71","68","75","","","","","","lextale","true","false","","","","","","","",""
"890","
  <p style=""font-size: 40px;"">wriggle</p>
  <p style=""font-size: 16px;"">F = YES &nbsp;&nbsp;&nbsp; J = NO</p>
","f","html-keyboard-response","50","2.1.0","277320","F=YES, J=NO","zmdztcv1w5","2","71","68","75","","","","","","lextale","true","false","","","","","","","",""
"1082","
  <p style=""font-size: 40px;"">mangle</p>
  <p style=""font-size: 16px;"">F = YES &nbsp;&nbsp;&nbsp; J = NO</p>
","f","html-keyboard-response","51","2.1.0","278403","F=YES, J=NO","zmdztcv1w5","2","71","68","75","","","","","","lextale","true","false","","","","","","","",""
"1824","
  <p style=""font-size: 40px;"">shramp</p>
  <p style=""font-size: 16px;"">F = YES &nbsp;&nbsp;&nbsp; J = NO</p>
","j","html-keyboard-response","52","2.1.0","280228","F=YES, J=NO","zmdztcv1w5","2","71","68","75","","","","","","lextale","false","false","","","","","","","",""
"766","
  <p style=""font-size: 40px;"">flirt</p>
  <p style=""font-size: 16px;"">F = YES &nbsp;&nbsp;&nbsp; J = NO</p>
","f","html-keyboard-response","53","2.1.0","280993","F=YES, J=NO","zmdztcv1w5","2","71","68","75","","","","","","lextale","true","false","","","","","","","",""
"1011","
  <p style=""font-size: 40px;"">frip</p>
  <p style=""font-size: 16px;"">F = YES &nbsp;&nbsp;&nbsp; J = NO</p>
","j","html-keyboard-response","54","2.1.0","282006","F=YES, J=NO","zmdztcv1w5","2","71","68","75","","","","","","lextale","false","false","","","","","","","",""
"1142","
  <p style=""font-size: 40px;"">tangle</p>
  <p style=""font-size: 16px;"">F = YES &nbsp;&nbsp;&nbsp; J = NO</p>
","j","html-keyboard-response","55","2.1.0","283148","F=YES, J=NO","zmdztcv1w5","2","71","68","75","","","","","","lextale","true","false","","","","","","","",""
"1047","
  <p style=""font-size: 40px;"">crumble</p>
  <p style=""font-size: 16px;"">F = YES &nbsp;&nbsp;&nbsp; J = NO</p>
","f","html-keyboard-response","56","2.1.0","284197","F=YES, J=NO","zmdztcv1w5","2","71","68","75","","","","","","lextale","true","false","","","","","","","",""
"1452","
  <p style=""font-size: 40px;"">wrinkle</p>
  <p style=""font-size: 16px;"">F = YES &nbsp;&nbsp;&nbsp; J = NO</p>
","f","html-keyboard-response","57","2.1.0","285650","F=YES, J=NO","zmdztcv1w5","2","71","68","75","","","","","","lextale","true","false","","","","","","","",""
"2426","
  <p style=""font-size: 40px;"">slumb</p>
  <p style=""font-size: 16px;"">F = YES &nbsp;&nbsp;&nbsp; J = NO</p>
","j","html-keyboard-response","58","2.1.0","288076","F=YES, J=NO","zmdztcv1w5","2","71","68","75","","","","","","lextale","false","false","","","","","","","",""
"745","
  <p style=""font-size: 40px;"">jungle</p>
  <p style=""font-size: 16px;"">F = YES &nbsp;&nbsp;&nbsp; J = NO</p>
","f","html-keyboard-response","59","2.1.0","288822","F=YES, J=NO","zmdztcv1w5","2","71","68","75","","","","","","lextale","true","false","","","","","","","",""
"1160","
  <p style=""font-size: 40px;"">frolick</p>
  <p style=""font-size: 16px;"">F = YES &nbsp;&nbsp;&nbsp; J = NO</p>
","j","html-keyboard-response","60","2.1.0","289982","F=YES, J=NO","zmdztcv1w5","2","71","68","75","","","","","","lextale","false","false","","","","","","","",""
"3307","
      <h2>LexTALE Test Completed</h2>
      <p>Your LexTALE vocabulary score is: <strong>71%</strong></p>
      <p>Press any key to continue.</p>
    ","e","html-keyboard-response","61","2.1.0","293290","F=YES, J=NO","zmdztcv1w5","2","71","68","75","","","","","","","","","","","","","","","",""
"34724","
    <div style=""max-width: 800px; margin: auto; text-align: left;"">
      <h2>Break Time</h2>
      <p>You have completed the first part of the study.</p>
      <p>You may take a short <strong>30-second break</strong> before continuing.</p>
      <p>When you’re ready, press any key to continue to the final task.</p>
    </div>
  ","a","html-keyboard-response","62","2.1.0","328014","F=YES, J=NO","zmdztcv1w5","2","71","68","75","","","","","","","","","","","","","","","",""
"45703","
    <div style=""max-width: 800px; margin: auto; text-align: left;"">
      <h2>Part 2: Lexical Decision Task</h2>
      <p>You will now begin the second part of the study.</p>
      <p>Each trial will follow this sequence:</p>
      <ul>
        <li>A fixation cross (+) appears at the center of the screen.</li>
        <li>You will hear a short beep followed by a spoken word.</li>
        <li>A written word will appear briefly on the screen.</li>
      </ul>
      <p>Your task is to judge whether the <strong>written word</strong> is a real English word.</p>
      <p style=""margin-top: 1em;""><strong>Key responses:</strong></p>
      <ul>
        <li><strong>F</strong> = YES (real English word)</li>
        <li><strong>J</strong> = NO (not a real English word)</li>
      </ul>
      <p>Please respond as quickly and accurately as you can.</p>
      <p style=""margin-top: 2em;"">Press any key to continue.</p>
    </div>
  ","f","html-keyboard-response","63","2.1.0","373717","F=YES, J=NO","zmdztcv1w5","2","71","68","75","","","","","","","","","","","","","","","",""
"9698","
    <div style=""max-width: 800px; margin: auto; text-align: left;"">
      <h2>Before You Begin</h2>
      <p>Make sure your sound is turned on.</p>
      <p>You will hear audio during each trial, but your decision should be based only on the <strong>written word</strong> you see on the screen.</p>
      <p><strong>Reminder:</strong></p>
      <ul>
        <li><strong>F</strong> = YES (real English word)</li>
        <li><strong>J</strong> = NO (not a real English word)</li>
      </ul>
      <p style=""margin-top: 2em;"">Press any key when you are ready to begin.</p>
    </div>
  ","f","html-keyboard-response","64","2.1.0","383416","F=YES, J=NO","zmdztcv1w5","2","71","68","75","","","","","","","","","","","","","","","",""
"4588","
    <div style=""max-width: 800px; margin: auto; text-align: left;"">
      <h2>Part 2: Practice Trials</h2>
      <p>You will now complete a few <strong>practice trials</strong> to get familiar with the task.</p>
      <p>These trials are <strong>not scored</strong> and are only to help you get used to the format.</p>
      <p style=""margin-top: 2em;"">Press any key to begin.</p>
    </div>
  ","f","html-keyboard-response","65","2.1.0","388005","F=YES, J=NO","zmdztcv1w5","2","71","68","75","","","","","","","","","","","","","","","",""
"2439","<p>Starting practice block 1 of 2. Press any key to continue.</p>","f","html-keyboard-response","66","2.1.0","390444","F=YES, J=NO","zmdztcv1w5","2","71","68","75","","","","","","","","","","","","","","","",""
"null","<p style=""font-size: 50px;"">+</p>","null","html-keyboard-response","67","2.1.0","390756","F=YES, J=NO","zmdztcv1w5","2","71","68","75","","","","","","","","","","","","","","","",""
"null","audio/beep-329314.mp3","null","audio-keyboard-response","68","2.1.0","393169","F=YES, J=NO","zmdztcv1w5","2","71","68","75","","","","","","","","","","","","","","","",""
"null","audio/cloud1.wav","null","audio-keyboard-response","69","2.1.0","394655","F=YES, J=NO","zmdztcv1w5","2","71","68","75","","","","","","","","","","","","","","","",""
"null","
          <p id=""word"" style=""font-size: 40px;"">brotant</p>
          <p style=""font-size: 16px;"">F = YES &nbsp;&nbsp;&nbsp; J = NO</p>
        ","null","html-keyboard-response","70","2.1.0","396165","F=YES, J=NO","zmdztcv1w5","2","71","68","75","","","","","","","","","brotant","cloud1","pseudoword","pseudoword","j","false","",""
"null","<p style=""font-size: 50px;"">+</p>","null","html-keyboard-response","71","2.1.0","396467","F=YES, J=NO","zmdztcv1w5","2","71","68","75","","","","","","","","","","","","","","","",""
"null","audio/beep-329314.mp3","null","audio-keyboard-response","72","2.1.0","398741","F=YES, J=NO","zmdztcv1w5","2","71","68","75","","","","","","","","","","","","","","","",""
"null","audio/scar.wav","null","audio-keyboard-response","73","2.1.0","400088","F=YES, J=NO","zmdztcv1w5","2","71","68","75","","","","","","","","","","","","","","","",""
"811","
          <p id=""word"" style=""font-size: 40px;"">adelineate</p>
          <p style=""font-size: 16px;"">F = YES &nbsp;&nbsp;&nbsp; J = NO</p>
        ","j","html-keyboard-response","74","2.1.0","400900","F=YES, J=NO","zmdztcv1w5","2","71","68","75","","","","","","","","","adelineate","scar","pseudoword","pseudoword","j","true","",""
"null","<p style=""font-size: 50px;"">+</p>","null","html-keyboard-response","75","2.1.0","401210","F=YES, J=NO","zmdztcv1w5","2","71","68","75","","","","","","","","","","","","","","","",""
"null","audio/beep-329314.mp3","null","audio-keyboard-response","76","2.1.0","403481","F=YES, J=NO","zmdztcv1w5","2","71","68","75","","","","","","","","","","","","","","","",""
"null","audio/camera1.wav","null","audio-keyboard-response","77","2.1.0","404868","F=YES, J=NO","zmdztcv1w5","2","71","68","75","","","","","","","","","","","","","","","",""
"770","
          <p id=""word"" style=""font-size: 40px;"">stir</p>
          <p style=""font-size: 16px;"">F = YES &nbsp;&nbsp;&nbsp; J = NO</p>
        ","f","html-keyboard-response","78","2.1.0","405638","F=YES, J=NO","zmdztcv1w5","2","71","68","75","","","","","","","","","stir","camera1","filler","filler","f","true","",""
"null","<p style=""font-size: 50px;"">+</p>","null","html-keyboard-response","79","2.1.0","405943","F=YES, J=NO","zmdztcv1w5","2","71","68","75","","","","","","","","","","","","","","","",""
"null","audio/beep-329314.mp3","null","audio-keyboard-response","80","2.1.0","408218","F=YES, J=NO","zmdztcv1w5","2","71","68","75","","","","","","","","","","","","","","","",""
"null","audio/floor.wav","null","audio-keyboard-response","81","2.1.0","409633","F=YES, J=NO","zmdztcv1w5","2","71","68","75","","","","","","","","","","","","","","","",""
"800","
          <p id=""word"" style=""font-size: 40px;"">mop</p>
          <p style=""font-size: 16px;"">F = YES &nbsp;&nbsp;&nbsp; J = NO</p>
        ","j","html-keyboard-response","82","2.1.0","410433","F=YES, J=NO","zmdztcv1w5","2","71","68","75","","","","","","","","","mop","floor","filler","filler","f","false","",""
"null","<p style=""font-size: 50px;"">+</p>","null","html-keyboard-response","83","2.1.0","410735","F=YES, J=NO","zmdztcv1w5","2","71","68","75","","","","","","","","","","","","","","","",""
"null","audio/beep-329314.mp3","null","audio-keyboard-response","84","2.1.0","413011","F=YES, J=NO","zmdztcv1w5","2","71","68","75","","","","","","","","","","","","","","","",""
"null","audio/pig.wav","null","audio-keyboard-response","85","2.1.0","414332","F=YES, J=NO","zmdztcv1w5","2","71","68","75","","","","","","","","","","","","","","","",""
"766","
          <p id=""word"" style=""font-size: 40px;"">tirlike</p>
          <p style=""font-size: 16px;"">F = YES &nbsp;&nbsp;&nbsp; J = NO</p>
        ","j","html-keyboard-response","86","2.1.0","415098","F=YES, J=NO","zmdztcv1w5","2","71","68","75","","","","","","","","","tirlike","pig","pseudoword","pseudoword","j","true","",""
"null","<p style=""font-size: 50px;"">+</p>","null","html-keyboard-response","87","2.1.0","415405","F=YES, J=NO","zmdztcv1w5","2","71","68","75","","","","","","","","","","","","","","","",""
"null","audio/beep-329314.mp3","null","audio-keyboard-response","88","2.1.0","417778","F=YES, J=NO","zmdztcv1w5","2","71","68","75","","","","","","","","","","","","","","","",""
"null","audio/breath.wav","null","audio-keyboard-response","89","2.1.0","419090","F=YES, J=NO","zmdztcv1w5","2","71","68","75","","","","","","","","","","","","","","","",""
"630","
          <p id=""word"" style=""font-size: 40px;"">pack</p>
          <p style=""font-size: 16px;"">F = YES &nbsp;&nbsp;&nbsp; J = NO</p>
        ","f","html-keyboard-response","90","2.1.0","419721","F=YES, J=NO","zmdztcv1w5","2","71","68","75","","","","","","","","","pack","breath","filler","filler","f","true","",""
"null","<p style=""font-size: 50px;"">+</p>","null","html-keyboard-response","91","2.1.0","420031","F=YES, J=NO","zmdztcv1w5","2","71","68","75","","","","","","","","","","","","","","","",""
"null","audio/beep-329314.mp3","null","audio-keyboard-response","92","2.1.0","422305","F=YES, J=NO","zmdztcv1w5","2","71","68","75","","","","","","","","","","","","","","","",""
"null","audio/weight1.wav","null","audio-keyboard-response","93","2.1.0","423700","F=YES, J=NO","zmdztcv1w5","2","71","68","75","","","","","","","","","","","","","","","",""
"862","
          <p id=""word"" style=""font-size: 40px;"">crimsh</p>
          <p style=""font-size: 16px;"">F = YES &nbsp;&nbsp;&nbsp; J = NO</p>
        ","j","html-keyboard-response","94","2.1.0","424563","F=YES, J=NO","zmdztcv1w5","2","71","68","75","","","","","","","","","crimsh","weight1","pseudoword","pseudoword","j","true","",""
"null","<p style=""font-size: 50px;"">+</p>","null","html-keyboard-response","95","2.1.0","424871","F=YES, J=NO","zmdztcv1w5","2","71","68","75","","","","","","","","","","","","","","","",""
"null","audio/beep-329314.mp3","null","audio-keyboard-response","96","2.1.0","427152","F=YES, J=NO","zmdztcv1w5","2","71","68","75","","","","","","","","","","","","","","","",""
"null","audio/tunnel.wav","null","audio-keyboard-response","97","2.1.0","428472","F=YES, J=NO","zmdztcv1w5","2","71","68","75","","","","","","","","","","","","","","","",""
"657","
          <p id=""word"" style=""font-size: 40px;"">gred</p>
          <p style=""font-size: 16px;"">F = YES &nbsp;&nbsp;&nbsp; J = NO</p>
        ","f","html-keyboard-response","98","2.1.0","429131","F=YES, J=NO","zmdztcv1w5","2","71","68","75","","","","","","","","","gred","tunnel","pseudoword","pseudoword","j","false","",""
"null","<p style=""font-size: 50px;"">+</p>","null","html-keyboard-response","99","2.1.0","429445","F=YES, J=NO","zmdztcv1w5","2","71","68","75","","","","","","","","","","","","","","","",""
"null","audio/beep-329314.mp3","null","audio-keyboard-response","100","2.1.0","431737","F=YES, J=NO","zmdztcv1w5","2","71","68","75","","","","","","","","","","","","","","","",""
"null","audio/cancer1.wav","null","audio-keyboard-response","101","2.1.0","433059","F=YES, J=NO","zmdztcv1w5","2","71","68","75","","","","","","","","","","","","","","","",""
"684","
          <p id=""word"" style=""font-size: 40px;"">draw</p>
          <p style=""font-size: 16px;"">F = YES &nbsp;&nbsp;&nbsp; J = NO</p>
        ","f","html-keyboard-response","102","2.1.0","433743","F=YES, J=NO","zmdztcv1w5","2","71","68","75","","","","","","","","","draw","cancer1","filler","filler","f","true","",""
"null","<p style=""font-size: 50px;"">+</p>","null","html-keyboard-response","103","2.1.0","434047","F=YES, J=NO","zmdztcv1w5","2","71","68","75","","","","","","","","","","","","","","","",""
"null","audio/beep-329314.mp3","null","audio-keyboard-response","104","2.1.0","436348","F=YES, J=NO","zmdztcv1w5","2","71","68","75","","","","","","","","","","","","","","","",""
"null","audio/ego.wav","null","audio-keyboard-response","105","2.1.0","437983","F=YES, J=NO","zmdztcv1w5","2","71","68","75","","","","","","","","","","","","","","","",""
"739","
          <p id=""word"" style=""font-size: 40px;"">bruite</p>
          <p style=""font-size: 16px;"">F = YES &nbsp;&nbsp;&nbsp; J = NO</p>
        ","j","html-keyboard-response","106","2.1.0","438723","F=YES, J=NO","zmdztcv1w5","2","71","68","75","","","","","","","","","bruite","ego","pseudoword","pseudoword","j","true","",""
"null","<p style=""font-size: 50px;"">+</p>","null","html-keyboard-response","107","2.1.0","439033","F=YES, J=NO","zmdztcv1w5","2","71","68","75","","","","","","","","","","","","","","","",""
"null","audio/beep-329314.mp3","null","audio-keyboard-response","108","2.1.0","441316","F=YES, J=NO","zmdztcv1w5","2","71","68","75","","","","","","","","","","","","","","","",""
"null","audio/window1.wav","null","audio-keyboard-response","109","2.1.0","442740","F=YES, J=NO","zmdztcv1w5","2","71","68","75","","","","","","","","","","","","","","","",""
"578","
          <p id=""word"" style=""font-size: 40px;"">toss</p>
          <p style=""font-size: 16px;"">F = YES &nbsp;&nbsp;&nbsp; J = NO</p>
        ","j","html-keyboard-response","110","2.1.0","443318","F=YES, J=NO","zmdztcv1w5","2","71","68","75","","","","","","","","","toss","window1","filler","filler","f","false","",""
"null","<p style=""font-size: 50px;"">+</p>","null","html-keyboard-response","111","2.1.0","443621","F=YES, J=NO","zmdztcv1w5","2","71","68","75","","","","","","","","","","","","","","","",""
"null","audio/beep-329314.mp3","null","audio-keyboard-response","112","2.1.0","445980","F=YES, J=NO","zmdztcv1w5","2","71","68","75","","","","","","","","","","","","","","","",""
"null","audio/arm.wav","null","audio-keyboard-response","113","2.1.0","447348","F=YES, J=NO","zmdztcv1w5","2","71","68","75","","","","","","","","","","","","","","","",""
"662","
          <p id=""word"" style=""font-size: 40px;"">fold</p>
          <p style=""font-size: 16px;"">F = YES &nbsp;&nbsp;&nbsp; J = NO</p>
        ","f","html-keyboard-response","114","2.1.0","448010","F=YES, J=NO","zmdztcv1w5","2","71","68","75","","","","","","","","","fold","arm","filler","filler","f","true","",""
"11390","<p>Starting practice block 2 of 2. Press any key to continue.</p>","f","html-keyboard-response","115","2.1.0","459400","F=YES, J=NO","zmdztcv1w5","2","71","68","75","","","","","","","","","","","","","","","",""
"null","<p style=""font-size: 50px;"">+</p>","null","html-keyboard-response","116","2.1.0","459705","F=YES, J=NO","zmdztcv1w5","2","71","68","75","","","","","","","","","","","","","","","",""
"null","audio/beep-329314.mp3","null","audio-keyboard-response","117","2.1.0","462170","F=YES, J=NO","zmdztcv1w5","2","71","68","75","","","","","","","","","","","","","","","",""
"null","audio/mile1.wav","null","audio-keyboard-response","118","2.1.0","463651","F=YES, J=NO","zmdztcv1w5","2","71","68","75","","","","","","","","","","","","","","","",""
"804","
          <p id=""word"" style=""font-size: 40px;"">writch</p>
          <p style=""font-size: 16px;"">F = YES &nbsp;&nbsp;&nbsp; J = NO</p>
        ","j","html-keyboard-response","119","2.1.0","464457","F=YES, J=NO","zmdztcv1w5","2","71","68","75","","","","","","","","","writch","mile1","pseudoword","pseudoword","j","true","",""
"null","<p style=""font-size: 50px;"">+</p>","null","html-keyboard-response","120","2.1.0","464761","F=YES, J=NO","zmdztcv1w5","2","71","68","75","","","","","","","","","","","","","","","",""
"null","audio/beep-329314.mp3","null","audio-keyboard-response","121","2.1.0","467108","F=YES, J=NO","zmdztcv1w5","2","71","68","75","","","","","","","","","","","","","","","",""
"null","audio/bomb1.wav","null","audio-keyboard-response","122","2.1.0","468325","F=YES, J=NO","zmdztcv1w5","2","71","68","75","","","","","","","","","","","","","","","",""
"639","
          <p id=""word"" style=""font-size: 40px;"">clean</p>
          <p style=""font-size: 16px;"">F = YES &nbsp;&nbsp;&nbsp; J = NO</p>
        ","f","html-keyboard-response","123","2.1.0","468965","F=YES, J=NO","zmdztcv1w5","2","71","68","75","","","","","","","","","clean","bomb1","filler","filler","f","true","",""
"null","<p style=""font-size: 50px;"">+</p>","null","html-keyboard-response","124","2.1.0","469278","F=YES, J=NO","zmdztcv1w5","2","71","68","75","","","","","","","","","","","","","","","",""
"null","audio/beep-329314.mp3","null","audio-keyboard-response","125","2.1.0","471607","F=YES, J=NO","zmdztcv1w5","2","71","68","75","","","","","","","","","","","","","","","",""
"null","audio/uncle1.wav","null","audio-keyboard-response","126","2.1.0","472984","F=YES, J=NO","zmdztcv1w5","2","71","68","75","","","","","","","","","","","","","","","",""
"1537","
          <p id=""word"" style=""font-size: 40px;"">dramble</p>
          <p style=""font-size: 16px;"">F = YES &nbsp;&nbsp;&nbsp; J = NO</p>
        ","j","html-keyboard-response","127","2.1.0","474523","F=YES, J=NO","zmdztcv1w5","2","71","68","75","","","","","","","","","dramble","uncle1","pseudoword","pseudoword","j","true","",""
"null","<p style=""font-size: 50px;"">+</p>","null","html-keyboard-response","128","2.1.0","474828","F=YES, J=NO","zmdztcv1w5","2","71","68","75","","","","","","","","","","","","","","","",""
"null","audio/beep-329314.mp3","null","audio-keyboard-response","129","2.1.0","477114","F=YES, J=NO","zmdztcv1w5","2","71","68","75","","","","","","","","","","","","","","","",""
"null","audio/birth1.wav","null","audio-keyboard-response","130","2.1.0","479680","F=YES, J=NO","zmdztcv1w5","2","71","68","75","","","","","","","","","","","","","","","",""
"776","
          <p id=""word"" style=""font-size: 40px;"">peel</p>
          <p style=""font-size: 16px;"">F = YES &nbsp;&nbsp;&nbsp; J = NO</p>
        ","f","html-keyboard-response","131","2.1.0","480456","F=YES, J=NO","zmdztcv1w5","2","71","68","75","","","","","","","","","peel","birth1","filler","filler","f","true","",""
"null","<p style=""font-size: 50px;"">+</p>","null","html-keyboard-response","132","2.1.0","480763","F=YES, J=NO","zmdztcv1w5","2","71","68","75","","","","","","","","","","","","","","","",""
"null","audio/beep-329314.mp3","null","audio-keyboard-response","133","2.1.0","483047","F=YES, J=NO","zmdztcv1w5","2","71","68","75","","","","","","","","","","","","","","","",""
"null","audio/golf1.wav","null","audio-keyboard-response","134","2.1.0","484594","F=YES, J=NO","zmdztcv1w5","2","71","68","75","","","","","","","","","","","","","","","",""
"837","
          <p id=""word"" style=""font-size: 40px;"">drabble</p>
          <p style=""font-size: 16px;"">F = YES &nbsp;&nbsp;&nbsp; J = NO</p>
        ","j","html-keyboard-response","135","2.1.0","485432","F=YES, J=NO","zmdztcv1w5","2","71","68","75","","","","","","","","","drabble","golf1","pseudoword","pseudoword","j","true","",""
"null","<p style=""font-size: 50px;"">+</p>","null","html-keyboard-response","136","2.1.0","485738","F=YES, J=NO","zmdztcv1w5","2","71","68","75","","","","","","","","","","","","","","","",""
"null","audio/beep-329314.mp3","null","audio-keyboard-response","137","2.1.0","488018","F=YES, J=NO","zmdztcv1w5","2","71","68","75","","","","","","","","","","","","","","","",""
"null","audio/belief.wav","null","audio-keyboard-response","138","2.1.0","489403","F=YES, J=NO","zmdztcv1w5","2","71","68","75","","","","","","","","","","","","","","","",""
"594","
          <p id=""word"" style=""font-size: 40px;"">read</p>
          <p style=""font-size: 16px;"">F = YES &nbsp;&nbsp;&nbsp; J = NO</p>
        ","f","html-keyboard-response","139","2.1.0","489997","F=YES, J=NO","zmdztcv1w5","2","71","68","75","","","","","","","","","read","belief","filler","filler","f","true","",""
"null","<p style=""font-size: 50px;"">+</p>","null","html-keyboard-response","140","2.1.0","490305","F=YES, J=NO","zmdztcv1w5","2","71","68","75","","","","","","","","","","","","","","","",""
"null","audio/beep-329314.mp3","null","audio-keyboard-response","141","2.1.0","492576","F=YES, J=NO","zmdztcv1w5","2","71","68","75","","","","","","","","","","","","","","","",""
"null","audio/corpse1.wav","null","audio-keyboard-response","142","2.1.0","493962","F=YES, J=NO","zmdztcv1w5","2","71","68","75","","","","","","","","","","","","","","","",""
"706","
          <p id=""word"" style=""font-size: 40px;"">glonet</p>
          <p style=""font-size: 16px;"">F = YES &nbsp;&nbsp;&nbsp; J = NO</p>
        ","j","html-keyboard-response","143","2.1.0","494669","F=YES, J=NO","zmdztcv1w5","2","71","68","75","","","","","","","","","glonet","corpse1","pseudoword","pseudoword","j","true","",""
"null","<p style=""font-size: 50px;"">+</p>","null","html-keyboard-response","144","2.1.0","494971","F=YES, J=NO","zmdztcv1w5","2","71","68","75","","","","","","","","","","","","","","","",""
"null","audio/beep-329314.mp3","null","audio-keyboard-response","145","2.1.0","497247","F=YES, J=NO","zmdztcv1w5","2","71","68","75","","","","","","","","","","","","","","","",""
"null","audio/gossip1.wav","null","audio-keyboard-response","146","2.1.0","498771","F=YES, J=NO","zmdztcv1w5","2","71","68","75","","","","","","","","","","","","","","","",""
"896","
          <p id=""word"" style=""font-size: 40px;"">camerish</p>
          <p style=""font-size: 16px;"">F = YES &nbsp;&nbsp;&nbsp; J = NO</p>
        ","j","html-keyboard-response","147","2.1.0","499669","F=YES, J=NO","zmdztcv1w5","2","71","68","75","","","","","","","","","camerish","gossip1","pseudoword","pseudoword","j","true","",""
"null","<p style=""font-size: 50px;"">+</p>","null","html-keyboard-response","148","2.1.0","499970","F=YES, J=NO","zmdztcv1w5","2","71","68","75","","","","","","","","","","","","","","","",""
"null","audio/beep-329314.mp3","null","audio-keyboard-response","149","2.1.0","502242","F=YES, J=NO","zmdztcv1w5","2","71","68","75","","","","","","","","","","","","","","","",""
"null","audio/novel.wav","null","audio-keyboard-response","150","2.1.0","503491","F=YES, J=NO","zmdztcv1w5","2","71","68","75","","","","","","","","","","","","","","","",""
"657","
          <p id=""word"" style=""font-size: 40px;"">type</p>
          <p style=""font-size: 16px;"">F = YES &nbsp;&nbsp;&nbsp; J = NO</p>
        ","f","html-keyboard-response","151","2.1.0","504149","F=YES, J=NO","zmdztcv1w5","2","71","68","75","","","","","","","","","type","novel","filler","filler","f","true","",""
"null","<p style=""font-size: 50px;"">+</p>","null","html-keyboard-response","152","2.1.0","504463","F=YES, J=NO","zmdztcv1w5","2","71","68","75","","","","","","","","","","","","","","","",""
"null","audio/beep-329314.mp3","null","audio-keyboard-response","153","2.1.0","506738","F=YES, J=NO","zmdztcv1w5","2","71","68","75","","","","","","","","","","","","","","","",""
"null","audio/radio1.wav","null","audio-keyboard-response","154","2.1.0","508084","F=YES, J=NO","zmdztcv1w5","2","71","68","75","","","","","","","","","","","","","","","",""
"1036","
          <p id=""word"" style=""font-size: 40px;"">blanter</p>
          <p style=""font-size: 16px;"">F = YES &nbsp;&nbsp;&nbsp; J = NO</p>
        ","j","html-keyboard-response","155","2.1.0","509120","F=YES, J=NO","zmdztcv1w5","2","71","68","75","","","","","","","","","blanter","radio1","pseudoword","pseudoword","j","true","",""
"null","<p style=""font-size: 50px;"">+</p>","null","html-keyboard-response","156","2.1.0","509430","F=YES, J=NO","zmdztcv1w5","2","71","68","75","","","","","","","","","","","","","","","",""
"null","audio/beep-329314.mp3","null","audio-keyboard-response","157","2.1.0","511706","F=YES, J=NO","zmdztcv1w5","2","71","68","75","","","","","","","","","","","","","","","",""
"null","audio/van1.wav","null","audio-keyboard-response","158","2.1.0","513087","F=YES, J=NO","zmdztcv1w5","2","71","68","75","","","","","","","","","","","","","","","",""
"856","
          <p id=""word"" style=""font-size: 40px;"">push</p>
          <p style=""font-size: 16px;"">F = YES &nbsp;&nbsp;&nbsp; J = NO</p>
        ","f","html-keyboard-response","159","2.1.0","513944","F=YES, J=NO","zmdztcv1w5","2","71","68","75","","","","","","","","","push","van1","filler","filler","f","true","",""
"null","<p style=""font-size: 50px;"">+</p>","null","html-keyboard-response","160","2.1.0","514245","F=YES, J=NO","zmdztcv1w5","2","71","68","75","","","","","","","","","","","","","","","",""
"null","audio/beep-329314.mp3","null","audio-keyboard-response","161","2.1.0","516516","F=YES, J=NO","zmdztcv1w5","2","71","68","75","","","","","","","","","","","","","","","",""
"null","audio/bridge.wav","null","audio-keyboard-response","162","2.1.0","517801","F=YES, J=NO","zmdztcv1w5","2","71","68","75","","","","","","","","","","","","","","","",""
"642","
          <p id=""word"" style=""font-size: 40px;"">crack</p>
          <p style=""font-size: 16px;"">F = YES &nbsp;&nbsp;&nbsp; J = NO</p>
        ","f","html-keyboard-response","163","2.1.0","518444","F=YES, J=NO","zmdztcv1w5","2","71","68","75","","","","","","","","","crack","bridge","filler","filler","f","true","",""
"34886","
    <div style=""max-width: 800px; margin: auto; text-align: left;"">
      <h2>Part 2: Main Trials</h2>
      <p>Great job on the practice trials!</p>
      <p>You will now begin the <strong>main set of trials</strong>.</p>
      <p>Remember your key assignments:</p>
      <ul>
        <li><strong>F</strong> = YES (real English word)</li>
        <li><strong>J</strong> = NO (not a real English word)</li>
      </ul>
      <p>Try to respond as <strong>quickly and accurately</strong> as possible.</p>
      <p style=""margin-top: 2em;"">Press any key to begin the main trials.</p>
    </div>
  ","f","html-keyboard-response","164","2.1.0","553331","F=YES, J=NO","zmdztcv1w5","2","71","68","75","","","","","","","","","","","","","","","",""
"2153","<p>Starting main block 1 of 8. Press any key to continue.</p>","AudioVolumeUp","html-keyboard-response","165","2.1.0","555485","F=YES, J=NO","zmdztcv1w5","2","71","68","75","","","","","","","","","","","","","","","",""
"null","<p style=""font-size: 50px;"">+</p>","null","html-keyboard-response","166","2.1.0","555800","F=YES, J=NO","zmdztcv1w5","2","71","68","75","","","","","","","","","","","","","","","",""
"null","audio/beep-329314.mp3","null","audio-keyboard-response","167","2.1.0","557642","F=YES, J=NO","zmdztcv1w5","2","71","68","75","","","","","","","","","","","","","","","",""
"null","audio/emotion.wav","null","audio-keyboard-response","168","2.1.0","558580","F=YES, J=NO","zmdztcv1w5","2","71","68","75","","","","","","","","","","","","","","","",""
"null","
          <p id=""word"" style=""font-size: 40px;"">devering</p>
          <p style=""font-size: 16px;"">F = YES &nbsp;&nbsp;&nbsp; J = NO</p>
        ","null","html-keyboard-response","169","2.1.0","560151","F=YES, J=NO","zmdztcv1w5","2","71","68","75","","","","","","","","","devering","emotion","pseudoword","pseudoword","j","false","",""
"null","<p style=""font-size: 50px;"">+</p>","null","html-keyboard-response","170","2.1.0","560452","F=YES, J=NO","zmdztcv1w5","2","71","68","75","","","","","","","","","","","","","","","",""
"null","audio/beep-329314.mp3","null","audio-keyboard-response","171","2.1.0","562258","F=YES, J=NO","zmdztcv1w5","2","71","68","75","","","","","","","","","","","","","","","",""
"null","audio/planet1.wav","null","audio-keyboard-response","172","2.1.0","563143","F=YES, J=NO","zmdztcv1w5","2","71","68","75","","","","","","","","","","","","","","","",""
"561","
          <p id=""word"" style=""font-size: 40px;"">save</p>
          <p style=""font-size: 16px;"">F = YES &nbsp;&nbsp;&nbsp; J = NO</p>
        ","f","html-keyboard-response","173","2.1.0","563703","F=YES, J=NO","zmdztcv1w5","2","71","68","75","","","","","","","","","save","planet1","metaphor","experimental","f","true","",""
"null","<p style=""font-size: 50px;"">+</p>","null","html-keyboard-response","174","2.1.0","564016","F=YES, J=NO","zmdztcv1w5","2","71","68","75","","","","","","","","","","","","","","","",""
"null","audio/beep-329314.mp3","null","audio-keyboard-response","175","2.1.0","565823","F=YES, J=NO","zmdztcv1w5","2","71","68","75","","","","","","","","","","","","","","","",""
"null","audio/pine.wav","null","audio-keyboard-response","176","2.1.0","566603","F=YES, J=NO","zmdztcv1w5","2","71","68","75","","","","","","","","","","","","","","","",""
"740","
          <p id=""word"" style=""font-size: 40px;"">crebble</p>
          <p style=""font-size: 16px;"">F = YES &nbsp;&nbsp;&nbsp; J = NO</p>
        ","j","html-keyboard-response","177","2.1.0","567344","F=YES, J=NO","zmdztcv1w5","2","71","68","75","","","","","","","","","crebble","pine","pseudoword","pseudoword","j","true","",""
"null","<p style=""font-size: 50px;"">+</p>","null","html-keyboard-response","178","2.1.0","567659","F=YES, J=NO","zmdztcv1w5","2","71","68","75","","","","","","","","","","","","","","","",""
"null","audio/beep-329314.mp3","null","audio-keyboard-response","179","2.1.0","569466","F=YES, J=NO","zmdztcv1w5","2","71","68","75","","","","","","","","","","","","","","","",""
"null","audio/haste1.wav","null","audio-keyboard-response","180","2.1.0","570308","F=YES, J=NO","zmdztcv1w5","2","71","68","75","","","","","","","","","","","","","","","",""
"731","
          <p id=""word"" style=""font-size: 40px;"">coraconate</p>
          <p style=""font-size: 16px;"">F = YES &nbsp;&nbsp;&nbsp; J = NO</p>
        ","j","html-keyboard-response","181","2.1.0","571040","F=YES, J=NO","zmdztcv1w5","2","71","68","75","","","","","","","","","coraconate","haste1","pseudoword","pseudoword","j","true","",""
"null","<p style=""font-size: 50px;"">+</p>","null","html-keyboard-response","182","2.1.0","571346","F=YES, J=NO","zmdztcv1w5","2","71","68","75","","","","","","","","","","","","","","","",""
"null","audio/beep-329314.mp3","null","audio-keyboard-response","183","2.1.0","573164","F=YES, J=NO","zmdztcv1w5","2","71","68","75","","","","","","","","","","","","","","","",""
"null","audio/hotel1.wav","null","audio-keyboard-response","184","2.1.0","574069","F=YES, J=NO","zmdztcv1w5","2","71","68","75","","","","","","","","","","","","","","","",""
"802","
          <p id=""word"" style=""font-size: 40px;"">flanter</p>
          <p style=""font-size: 16px;"">F = YES &nbsp;&nbsp;&nbsp; J = NO</p>
        ","j","html-keyboard-response","185","2.1.0","574869","F=YES, J=NO","zmdztcv1w5","2","71","68","75","","","","","","","","","flanter","hotel1","pseudoword","pseudoword","j","true","",""
"null","<p style=""font-size: 50px;"">+</p>","null","html-keyboard-response","186","2.1.0","575172","F=YES, J=NO","zmdztcv1w5","2","71","68","75","","","","","","","","","","","","","","","",""
"null","audio/beep-329314.mp3","null","audio-keyboard-response","187","2.1.0","576998","F=YES, J=NO","zmdztcv1w5","2","71","68","75","","","","","","","","","","","","","","","",""
"null","audio/cinema1.wav","null","audio-keyboard-response","188","2.1.0","577884","F=YES, J=NO","zmdztcv1w5","2","71","68","75","","","","","","","","","","","","","","","",""
"884","
          <p id=""word"" style=""font-size: 40px;"">murple</p>
          <p style=""font-size: 16px;"">F = YES &nbsp;&nbsp;&nbsp; J = NO</p>
        ","j","html-keyboard-response","189","2.1.0","578770","F=YES, J=NO","zmdztcv1w5","2","71","68","75","","","","","","","","","murple","cinema1","pseudoword","pseudoword","j","true","",""
"null","<p style=""font-size: 50px;"">+</p>","null","html-keyboard-response","190","2.1.0","579083","F=YES, J=NO","zmdztcv1w5","2","71","68","75","","","","","","","","","","","","","","","",""
"null","audio/beep-329314.mp3","null","audio-keyboard-response","191","2.1.0","580905","F=YES, J=NO","zmdztcv1w5","2","71","68","75","","","","","","","","","","","","","","","",""
"null","audio/pain1.wav","null","audio-keyboard-response","192","2.1.0","581630","F=YES, J=NO","zmdztcv1w5","2","71","68","75","","","","","","","","","","","","","","","",""
"706","
          <p id=""word"" style=""font-size: 40px;"">tritted</p>
          <p style=""font-size: 16px;"">F = YES &nbsp;&nbsp;&nbsp; J = NO</p>
        ","j","html-keyboard-response","193","2.1.0","582336","F=YES, J=NO","zmdztcv1w5","2","71","68","75","","","","","","","","","tritted","pain1","pseudoword","pseudoword","j","true","",""
"null","<p style=""font-size: 50px;"">+</p>","null","html-keyboard-response","194","2.1.0","582686","F=YES, J=NO","zmdztcv1w5","2","71","68","75","","","","","","","","","","","","","","","",""
"null","audio/beep-329314.mp3","null","audio-keyboard-response","195","2.1.0","584507","F=YES, J=NO","zmdztcv1w5","2","71","68","75","","","","","","","","","","","","","","","",""
"null","audio/terrain.wav","null","audio-keyboard-response","196","2.1.0","585368","F=YES, J=NO","zmdztcv1w5","2","71","68","75","","","","","","","","","","","","","","","",""
"621","
          <p id=""word"" style=""font-size: 40px;"">navigate</p>
          <p style=""font-size: 16px;"">F = YES &nbsp;&nbsp;&nbsp; J = NO</p>
        ","f","html-keyboard-response","197","2.1.0","585990","F=YES, J=NO","zmdztcv1w5","2","71","68","75","","","","","","","","","navigate","terrain","literal","experimental","f","true","",""
"null","<p style=""font-size: 50px;"">+</p>","null","html-keyboard-response","198","2.1.0","586295","F=YES, J=NO","zmdztcv1w5","2","71","68","75","","","","","","","","","","","","","","","",""
"null","audio/beep-329314.mp3","null","audio-keyboard-response","199","2.1.0","588108","F=YES, J=NO","zmdztcv1w5","2","71","68","75","","","","","","","","","","","","","","","",""
"null","audio/trout1.wav","null","audio-keyboard-response","200","2.1.0","588978","F=YES, J=NO","zmdztcv1w5","2","71","68","75","","","","","","","","","","","","","","","",""
"719","
          <p id=""word"" style=""font-size: 40px;"">spimt</p>
          <p style=""font-size: 16px;"">F = YES &nbsp;&nbsp;&nbsp; J = NO</p>
        ","j","html-keyboard-response","201","2.1.0","589697","F=YES, J=NO","zmdztcv1w5","2","71","68","75","","","","","","","","","spimt","trout1","pseudoword","pseudoword","j","true","",""
"null","<p style=""font-size: 50px;"">+</p>","null","html-keyboard-response","202","2.1.0","590000","F=YES, J=NO","zmdztcv1w5","2","71","68","75","","","","","","","","","","","","","","","",""
"null","audio/beep-329314.mp3","null","audio-keyboard-response","203","2.1.0","591826","F=YES, J=NO","zmdztcv1w5","2","71","68","75","","","","","","","","","","","","","","","",""
"null","audio/age1.wav","null","audio-keyboard-response","204","2.1.0","592653","F=YES, J=NO","zmdztcv1w5","2","71","68","75","","","","","","","","","","","","","","","",""
"655","
          <p id=""word"" style=""font-size: 40px;"">lachry</p>
          <p style=""font-size: 16px;"">F = YES &nbsp;&nbsp;&nbsp; J = NO</p>
        ","j","html-keyboard-response","205","2.1.0","593310","F=YES, J=NO","zmdztcv1w5","2","71","68","75","","","","","","","","","lachry","age1","pseudoword","pseudoword","j","true","",""
"null","<p style=""font-size: 50px;"">+</p>","null","html-keyboard-response","206","2.1.0","593614","F=YES, J=NO","zmdztcv1w5","2","71","68","75","","","","","","","","","","","","","","","",""
"null","audio/beep-329314.mp3","null","audio-keyboard-response","207","2.1.0","595433","F=YES, J=NO","zmdztcv1w5","2","71","68","75","","","","","","","","","","","","","","","",""
"null","audio/burden.wav","null","audio-keyboard-response","208","2.1.0","596218","F=YES, J=NO","zmdztcv1w5","2","71","68","75","","","","","","","","","","","","","","","",""
"577","
          <p id=""word"" style=""font-size: 40px;"">carry</p>
          <p style=""font-size: 16px;"">F = YES &nbsp;&nbsp;&nbsp; J = NO</p>
        ","f","html-keyboard-response","209","2.1.0","596795","F=YES, J=NO","zmdztcv1w5","2","71","68","75","","","","","","","","","carry","burden","metaphor","experimental","f","true","",""
"null","<p style=""font-size: 50px;"">+</p>","null","html-keyboard-response","210","2.1.0","597100","F=YES, J=NO","zmdztcv1w5","2","71","68","75","","","","","","","","","","","","","","","",""
"null","audio/beep-329314.mp3","null","audio-keyboard-response","211","2.1.0","598923","F=YES, J=NO","zmdztcv1w5","2","71","68","75","","","","","","","","","","","","","","","",""
"null","audio/tax1.wav","null","audio-keyboard-response","212","2.1.0","599808","F=YES, J=NO","zmdztcv1w5","2","71","68","75","","","","","","","","","","","","","","","",""
"664","
          <p id=""word"" style=""font-size: 40px;"">snate</p>
          <p style=""font-size: 16px;"">F = YES &nbsp;&nbsp;&nbsp; J = NO</p>
        ","j","html-keyboard-response","213","2.1.0","600473","F=YES, J=NO","zmdztcv1w5","2","71","68","75","","","","","","","","","snate","tax1","pseudoword","pseudoword","j","true","",""
"null","<p style=""font-size: 50px;"">+</p>","null","html-keyboard-response","214","2.1.0","600784","F=YES, J=NO","zmdztcv1w5","2","71","68","75","","","","","","","","","","","","","","","",""
"null","audio/beep-329314.mp3","null","audio-keyboard-response","215","2.1.0","602601","F=YES, J=NO","zmdztcv1w5","2","71","68","75","","","","","","","","","","","","","","","",""
"null","audio/card1.wav","null","audio-keyboard-response","216","2.1.0","603423","F=YES, J=NO","zmdztcv1w5","2","71","68","75","","","","","","","","","","","","","","","",""
"627","
          <p id=""word"" style=""font-size: 40px;"">land</p>
          <p style=""font-size: 16px;"">F = YES &nbsp;&nbsp;&nbsp; J = NO</p>
        ","f","html-keyboard-response","217","2.1.0","604051","F=YES, J=NO","zmdztcv1w5","2","71","68","75","","","","","","","","","land","card1","unrelated","experimental","f","true","",""
"null","<p style=""font-size: 50px;"">+</p>","null","html-keyboard-response","218","2.1.0","604356","F=YES, J=NO","zmdztcv1w5","2","71","68","75","","","","","","","","","","","","","","","",""
"null","audio/beep-329314.mp3","null","audio-keyboard-response","219","2.1.0","606166","F=YES, J=NO","zmdztcv1w5","2","71","68","75","","","","","","","","","","","","","","","",""
"null","audio/budget1.wav","null","audio-keyboard-response","220","2.1.0","607060","F=YES, J=NO","zmdztcv1w5","2","71","68","75","","","","","","","","","","","","","","","",""
"666","
          <p id=""word"" style=""font-size: 40px;"">sulist</p>
          <p style=""font-size: 16px;"">F = YES &nbsp;&nbsp;&nbsp; J = NO</p>
        ","j","html-keyboard-response","221","2.1.0","607727","F=YES, J=NO","zmdztcv1w5","2","71","68","75","","","","","","","","","sulist","budget1","pseudoword","pseudoword","j","true","",""
"null","<p style=""font-size: 50px;"">+</p>","null","html-keyboard-response","222","2.1.0","608039","F=YES, J=NO","zmdztcv1w5","2","71","68","75","","","","","","","","","","","","","","","",""
"null","audio/beep-329314.mp3","null","audio-keyboard-response","223","2.1.0","609867","F=YES, J=NO","zmdztcv1w5","2","71","68","75","","","","","","","","","","","","","","","",""
"null","audio/survey1.wav","null","audio-keyboard-response","224","2.1.0","610877","F=YES, J=NO","zmdztcv1w5","2","71","68","75","","","","","","","","","","","","","","","",""
"649","
          <p id=""word"" style=""font-size: 40px;"">imploth</p>
          <p style=""font-size: 16px;"">F = YES &nbsp;&nbsp;&nbsp; J = NO</p>
        ","j","html-keyboard-response","225","2.1.0","611526","F=YES, J=NO","zmdztcv1w5","2","71","68","75","","","","","","","","","imploth","survey1","pseudoword","pseudoword","j","true","",""
"null","<p style=""font-size: 50px;"">+</p>","null","html-keyboard-response","226","2.1.0","611838","F=YES, J=NO","zmdztcv1w5","2","71","68","75","","","","","","","","","","","","","","","",""
"null","audio/beep-329314.mp3","null","audio-keyboard-response","227","2.1.0","613646","F=YES, J=NO","zmdztcv1w5","2","71","68","75","","","","","","","","","","","","","","","",""
"null","audio/story.wav","null","audio-keyboard-response","228","2.1.0","614593","F=YES, J=NO","zmdztcv1w5","2","71","68","75","","","","","","","","","","","","","","","",""
"604","
          <p id=""word"" style=""font-size: 40px;"">cover</p>
          <p style=""font-size: 16px;"">F = YES &nbsp;&nbsp;&nbsp; J = NO</p>
        ","f","html-keyboard-response","229","2.1.0","615195","F=YES, J=NO","zmdztcv1w5","2","71","68","75","","","","","","","","","cover","story","metaphor","experimental","f","true","",""
"5920","<p>Excellent! You have finished block 1 of 8.</p>
                     <p>Feel free to take a 30 second break.</p>
                     <p>Press any key when you're ready to continue.</p>","f","html-keyboard-response","230","2.1.0","621116","F=YES, J=NO","zmdztcv1w5","2","71","68","75","","","","","","","","","","","","","","","",""
"2617","<p>Starting main block 2 of 8. Press any key to continue.</p>","f","html-keyboard-response","231","2.1.0","623734","F=YES, J=NO","zmdztcv1w5","2","71","68","75","","","","","","","","","","","","","","","",""
"null","<p style=""font-size: 50px;"">+</p>","null","html-keyboard-response","232","2.1.0","624048","F=YES, J=NO","zmdztcv1w5","2","71","68","75","","","","","","","","","","","","","","","",""
"null","audio/beep-329314.mp3","null","audio-keyboard-response","233","2.1.0","625867","F=YES, J=NO","zmdztcv1w5","2","71","68","75","","","","","","","","","","","","","","","",""
"null","audio/fox.wav","null","audio-keyboard-response","234","2.1.0","626924","F=YES, J=NO","zmdztcv1w5","2","71","68","75","","","","","","","","","","","","","","","",""
"824","
          <p id=""word"" style=""font-size: 40px;"">conquer</p>
          <p style=""font-size: 16px;"">F = YES &nbsp;&nbsp;&nbsp; J = NO</p>
        ","f","html-keyboard-response","235","2.1.0","627749","F=YES, J=NO","zmdztcv1w5","2","71","68","75","","","","","","","","","conquer","fox","unrelated","experimental","f","true","",""
"null","<p style=""font-size: 50px;"">+</p>","null","html-keyboard-response","236","2.1.0","628053","F=YES, J=NO","zmdztcv1w5","2","71","68","75","","","","","","","","","","","","","","","",""
"null","audio/beep-329314.mp3","null","audio-keyboard-response","237","2.1.0","629868","F=YES, J=NO","zmdztcv1w5","2","71","68","75","","","","","","","","","","","","","","","",""
"null","audio/grass.wav","null","audio-keyboard-response","238","2.1.0","630793","F=YES, J=NO","zmdztcv1w5","2","71","68","75","","","","","","","","","","","","","","","",""
"551","
          <p id=""word"" style=""font-size: 40px;"">cut</p>
          <p style=""font-size: 16px;"">F = YES &nbsp;&nbsp;&nbsp; J = NO</p>
        ","f","html-keyboard-response","239","2.1.0","631344","F=YES, J=NO","zmdztcv1w5","2","71","68","75","","","","","","","","","cut","grass","literal","experimental","f","true","",""
"null","<p style=""font-size: 50px;"">+</p>","null","html-keyboard-response","240","2.1.0","631651","F=YES, J=NO","zmdztcv1w5","2","71","68","75","","","","","","","","","","","","","","","",""
"null","audio/beep-329314.mp3","null","audio-keyboard-response","241","2.1.0","633451","F=YES, J=NO","zmdztcv1w5","2","71","68","75","","","","","","","","","","","","","","","",""
"null","audio/topic.wav","null","audio-keyboard-response","242","2.1.0","634314","F=YES, J=NO","zmdztcv1w5","2","71","68","75","","","","","","","","","","","","","","","",""
"1064","
          <p id=""word"" style=""font-size: 40px;"">infortuitist</p>
          <p style=""font-size: 16px;"">F = YES &nbsp;&nbsp;&nbsp; J = NO</p>
        ","f","html-keyboard-response","243","2.1.0","635379","F=YES, J=NO","zmdztcv1w5","2","71","68","75","","","","","","","","","infortuitist","topic","pseudoword","pseudoword","j","false","",""
"null","<p style=""font-size: 50px;"">+</p>","null","html-keyboard-response","244","2.1.0","635684","F=YES, J=NO","zmdztcv1w5","2","71","68","75","","","","","","","","","","","","","","","",""
"null","audio/beep-329314.mp3","null","audio-keyboard-response","245","2.1.0","637496","F=YES, J=NO","zmdztcv1w5","2","71","68","75","","","","","","","","","","","","","","","",""
"null","audio/mouth1.wav","null","audio-keyboard-response","246","2.1.0","638345","F=YES, J=NO","zmdztcv1w5","2","71","68","75","","","","","","","","","","","","","","","",""
"565","
          <p id=""word"" style=""font-size: 40px;"">close</p>
          <p style=""font-size: 16px;"">F = YES &nbsp;&nbsp;&nbsp; J = NO</p>
        ","f","html-keyboard-response","247","2.1.0","638910","F=YES, J=NO","zmdztcv1w5","2","71","68","75","","","","","","","","","close","mouth1","literal","experimental","f","true","",""
"null","<p style=""font-size: 50px;"">+</p>","null","html-keyboard-response","248","2.1.0","639213","F=YES, J=NO","zmdztcv1w5","2","71","68","75","","","","","","","","","","","","","","","",""
"null","audio/beep-329314.mp3","null","audio-keyboard-response","249","2.1.0","641026","F=YES, J=NO","zmdztcv1w5","2","71","68","75","","","","","","","","","","","","","","","",""
"null","audio/fear.wav","null","audio-keyboard-response","250","2.1.0","641839","F=YES, J=NO","zmdztcv1w5","2","71","68","75","","","","","","","","","","","","","","","",""
"616","
          <p id=""word"" style=""font-size: 40px;"">spread</p>
          <p style=""font-size: 16px;"">F = YES &nbsp;&nbsp;&nbsp; J = NO</p>
        ","f","html-keyboard-response","251","2.1.0","642456","F=YES, J=NO","zmdztcv1w5","2","71","68","75","","","","","","","","","spread","fear","metaphor","experimental","f","true","",""
"null","<p style=""font-size: 50px;"">+</p>","null","html-keyboard-response","252","2.1.0","642770","F=YES, J=NO","zmdztcv1w5","2","71","68","75","","","","","","","","","","","","","","","",""
"null","audio/beep-329314.mp3","null","audio-keyboard-response","253","2.1.0","644592","F=YES, J=NO","zmdztcv1w5","2","71","68","75","","","","","","","","","","","","","","","",""
"null","audio/alarm1.wav","null","audio-keyboard-response","254","2.1.0","645443","F=YES, J=NO","zmdztcv1w5","2","71","68","75","","","","","","","","","","","","","","","",""
"629","
          <p id=""word"" style=""font-size: 40px;"">lock</p>
          <p style=""font-size: 16px;"">F = YES &nbsp;&nbsp;&nbsp; J = NO</p>
        ","f","html-keyboard-response","255","2.1.0","646074","F=YES, J=NO","zmdztcv1w5","2","71","68","75","","","","","","","","","lock","alarm1","filler","filler","f","true","",""
"null","<p style=""font-size: 50px;"">+</p>","null","html-keyboard-response","256","2.1.0","646380","F=YES, J=NO","zmdztcv1w5","2","71","68","75","","","","","","","","","","","","","","","",""
"null","audio/beep-329314.mp3","null","audio-keyboard-response","257","2.1.0","648200","F=YES, J=NO","zmdztcv1w5","2","71","68","75","","","","","","","","","","","","","","","",""
"null","audio/test1.wav","null","audio-keyboard-response","258","2.1.0","649050","F=YES, J=NO","zmdztcv1w5","2","71","68","75","","","","","","","","","","","","","","","",""
"684","
          <p id=""word"" style=""font-size: 40px;"">twopch</p>
          <p style=""font-size: 16px;"">F = YES &nbsp;&nbsp;&nbsp; J = NO</p>
        ","j","html-keyboard-response","259","2.1.0","649734","F=YES, J=NO","zmdztcv1w5","2","71","68","75","","","","","","","","","twopch","test1","pseudoword","pseudoword","j","true","",""
"null","<p style=""font-size: 50px;"">+</p>","null","html-keyboard-response","260","2.1.0","650037","F=YES, J=NO","zmdztcv1w5","2","71","68","75","","","","","","","","","","","","","","","",""
"null","audio/beep-329314.mp3","null","audio-keyboard-response","261","2.1.0","651854","F=YES, J=NO","zmdztcv1w5","2","71","68","75","","","","","","","","","","","","","","","",""
"null","audio/revenue1.wav","null","audio-keyboard-response","262","2.1.0","652805","F=YES, J=NO","zmdztcv1w5","2","71","68","75","","","","","","","","","","","","","","","",""
"545","
          <p id=""word"" style=""font-size: 40px;"">grow</p>
          <p style=""font-size: 16px;"">F = YES &nbsp;&nbsp;&nbsp; J = NO</p>
        ","f","html-keyboard-response","263","2.1.0","653349","F=YES, J=NO","zmdztcv1w5","2","71","68","75","","","","","","","","","grow","revenue1","metaphor","experimental","f","true","",""
"null","<p style=""font-size: 50px;"">+</p>","null","html-keyboard-response","264","2.1.0","653660","F=YES, J=NO","zmdztcv1w5","2","71","68","75","","","","","","","","","","","","","","","",""
"null","audio/beep-329314.mp3","null","audio-keyboard-response","265","2.1.0","655480","F=YES, J=NO","zmdztcv1w5","2","71","68","75","","","","","","","","","","","","","","","",""
"null","audio/survey1.wav","null","audio-keyboard-response","266","2.1.0","656497","F=YES, J=NO","zmdztcv1w5","2","71","68","75","","","","","","","","","","","","","","","",""
"655","
          <p id=""word"" style=""font-size: 40px;"">release</p>
          <p style=""font-size: 16px;"">F = YES &nbsp;&nbsp;&nbsp; J = NO</p>
        ","f","html-keyboard-response","267","2.1.0","657152","F=YES, J=NO","zmdztcv1w5","2","71","68","75","","","","","","","","","release","survey1","metaphor","experimental","f","true","",""
"null","<p style=""font-size: 50px;"">+</p>","null","html-keyboard-response","268","2.1.0","657479","F=YES, J=NO","zmdztcv1w5","2","71","68","75","","","","","","","","","","","","","","","",""
"null","audio/beep-329314.mp3","null","audio-keyboard-response","269","2.1.0","659294","F=YES, J=NO","zmdztcv1w5","2","71","68","75","","","","","","","","","","","","","","","",""
"null","audio/street.wav","null","audio-keyboard-response","270","2.1.0","660268","F=YES, J=NO","zmdztcv1w5","2","71","68","75","","","","","","","","","","","","","","","",""
"589","
          <p id=""word"" style=""font-size: 40px;"">hold</p>
          <p style=""font-size: 16px;"">F = YES &nbsp;&nbsp;&nbsp; J = NO</p>
        ","f","html-keyboard-response","271","2.1.0","660858","F=YES, J=NO","zmdztcv1w5","2","71","68","75","","","","","","","","","hold","street","unrelated","experimental","f","true","",""
"null","<p style=""font-size: 50px;"">+</p>","null","html-keyboard-response","272","2.1.0","661166","F=YES, J=NO","zmdztcv1w5","2","71","68","75","","","","","","","","","","","","","","","",""
"null","audio/beep-329314.mp3","null","audio-keyboard-response","273","2.1.0","662989","F=YES, J=NO","zmdztcv1w5","2","71","68","75","","","","","","","","","","","","","","","",""
"null","audio/wool1.wav","null","audio-keyboard-response","274","2.1.0","663639","F=YES, J=NO","zmdztcv1w5","2","71","68","75","","","","","","","","","","","","","","","",""
"696","
          <p id=""word"" style=""font-size: 40px;"">weave</p>
          <p style=""font-size: 16px;"">F = YES &nbsp;&nbsp;&nbsp; J = NO</p>
        ","f","html-keyboard-response","275","2.1.0","664337","F=YES, J=NO","zmdztcv1w5","2","71","68","75","","","","","","","","","weave","wool1","literal","experimental","f","true","",""
"null","<p style=""font-size: 50px;"">+</p>","null","html-keyboard-response","276","2.1.0","664642","F=YES, J=NO","zmdztcv1w5","2","71","68","75","","","","","","","","","","","","","","","",""
"null","audio/beep-329314.mp3","null","audio-keyboard-response","277","2.1.0","666455","F=YES, J=NO","zmdztcv1w5","2","71","68","75","","","","","","","","","","","","","","","",""
"null","audio/key1.wav","null","audio-keyboard-response","278","2.1.0","667116","F=YES, J=NO","zmdztcv1w5","2","71","68","75","","","","","","","","","","","","","","","",""
"738","
          <p id=""word"" style=""font-size: 40px;"">sminsh</p>
          <p style=""font-size: 16px;"">F = YES &nbsp;&nbsp;&nbsp; J = NO</p>
        ","j","html-keyboard-response","279","2.1.0","667854","F=YES, J=NO","zmdztcv1w5","2","71","68","75","","","","","","","","","sminsh","key1","pseudoword","pseudoword","j","true","",""
"null","<p style=""font-size: 50px;"">+</p>","null","html-keyboard-response","280","2.1.0","668169","F=YES, J=NO","zmdztcv1w5","2","71","68","75","","","","","","","","","","","","","","","",""
"null","audio/beep-329314.mp3","null","audio-keyboard-response","281","2.1.0","669996","F=YES, J=NO","zmdztcv1w5","2","71","68","75","","","","","","","","","","","","","","","",""
"null","audio/noise1.wav","null","audio-keyboard-response","282","2.1.0","670886","F=YES, J=NO","zmdztcv1w5","2","71","68","75","","","","","","","","","","","","","","","",""
"765","
          <p id=""word"" style=""font-size: 40px;"">slintered</p>
          <p style=""font-size: 16px;"">F = YES &nbsp;&nbsp;&nbsp; J = NO</p>
        ","j","html-keyboard-response","283","2.1.0","671651","F=YES, J=NO","zmdztcv1w5","2","71","68","75","","","","","","","","","slintered","noise1","pseudoword","pseudoword","j","true","",""
"null","<p style=""font-size: 50px;"">+</p>","null","html-keyboard-response","284","2.1.0","671951","F=YES, J=NO","zmdztcv1w5","2","71","68","75","","","","","","","","","","","","","","","",""
"null","audio/beep-329314.mp3","null","audio-keyboard-response","285","2.1.0","673775","F=YES, J=NO","zmdztcv1w5","2","71","68","75","","","","","","","","","","","","","","","",""
"null","audio/rain.wav","null","audio-keyboard-response","286","2.1.0","674522","F=YES, J=NO","zmdztcv1w5","2","71","68","75","","","","","","","","","","","","","","","",""
"653","
          <p id=""word"" style=""font-size: 40px;"">lose</p>
          <p style=""font-size: 16px;"">F = YES &nbsp;&nbsp;&nbsp; J = NO</p>
        ","f","html-keyboard-response","287","2.1.0","675175","F=YES, J=NO","zmdztcv1w5","2","71","68","75","","","","","","","","","lose","rain","unrelated","experimental","f","true","",""
"null","<p style=""font-size: 50px;"">+</p>","null","html-keyboard-response","288","2.1.0","675478","F=YES, J=NO","zmdztcv1w5","2","71","68","75","","","","","","","","","","","","","","","",""
"null","audio/beep-329314.mp3","null","audio-keyboard-response","289","2.1.0","677303","F=YES, J=NO","zmdztcv1w5","2","71","68","75","","","","","","","","","","","","","","","",""
"null","audio/cash1.wav","null","audio-keyboard-response","290","2.1.0","678132","F=YES, J=NO","zmdztcv1w5","2","71","68","75","","","","","","","","","","","","","","","",""
"836","
          <p id=""word"" style=""font-size: 40px;"">splear</p>
          <p style=""font-size: 16px;"">F = YES &nbsp;&nbsp;&nbsp; J = NO</p>
        ","j","html-keyboard-response","291","2.1.0","678969","F=YES, J=NO","zmdztcv1w5","2","71","68","75","","","","","","","","","splear","cash1","pseudoword","pseudoword","j","true","",""
"null","<p style=""font-size: 50px;"">+</p>","null","html-keyboard-response","292","2.1.0","679275","F=YES, J=NO","zmdztcv1w5","2","71","68","75","","","","","","","","","","","","","","","",""
"null","audio/beep-329314.mp3","null","audio-keyboard-response","293","2.1.0","681098","F=YES, J=NO","zmdztcv1w5","2","71","68","75","","","","","","","","","","","","","","","",""
"null","audio/goal.wav","null","audio-keyboard-response","294","2.1.0","681798","F=YES, J=NO","zmdztcv1w5","2","71","68","75","","","","","","","","","","","","","","","",""
"621","
          <p id=""word"" style=""font-size: 40px;"">support</p>
          <p style=""font-size: 16px;"">F = YES &nbsp;&nbsp;&nbsp; J = NO</p>
        ","f","html-keyboard-response","295","2.1.0","682420","F=YES, J=NO","zmdztcv1w5","2","71","68","75","","","","","","","","","support","goal","metaphor","experimental","f","true","",""
"4429","<p>Excellent! You have finished block 2 of 8.</p>
                     <p>Feel free to take a 30 second break.</p>
                     <p>Press any key when you're ready to continue.</p>","f","html-keyboard-response","296","2.1.0","686850","F=YES, J=NO","zmdztcv1w5","2","71","68","75","","","","","","","","","","","","","","","",""
"1130","<p>Starting main block 3 of 8. Press any key to continue.</p>","f","html-keyboard-response","297","2.1.0","687979","F=YES, J=NO","zmdztcv1w5","2","71","68","75","","","","","","","","","","","","","","","",""
"null","<p style=""font-size: 50px;"">+</p>","null","html-keyboard-response","298","2.1.0","688283","F=YES, J=NO","zmdztcv1w5","2","71","68","75","","","","","","","","","","","","","","","",""
"null","audio/beep-329314.mp3","null","audio-keyboard-response","299","2.1.0","690102","F=YES, J=NO","zmdztcv1w5","2","71","68","75","","","","","","","","","","","","","","","",""
"null","audio/roof1.wav","null","audio-keyboard-response","300","2.1.0","690910","F=YES, J=NO","zmdztcv1w5","2","71","68","75","","","","","","","","","","","","","","","",""
"689","
          <p id=""word"" style=""font-size: 40px;"">wronb</p>
          <p style=""font-size: 16px;"">F = YES &nbsp;&nbsp;&nbsp; J = NO</p>
        ","j","html-keyboard-response","301","2.1.0","691600","F=YES, J=NO","zmdztcv1w5","2","71","68","75","","","","","","","","","wronb","roof1","pseudoword","pseudoword","j","true","",""
"null","<p style=""font-size: 50px;"">+</p>","null","html-keyboard-response","302","2.1.0","691907","F=YES, J=NO","zmdztcv1w5","2","71","68","75","","","","","","","","","","","","","","","",""
"null","audio/beep-329314.mp3","null","audio-keyboard-response","303","2.1.0","693711","F=YES, J=NO","zmdztcv1w5","2","71","68","75","","","","","","","","","","","","","","","",""
"null","audio/trust.wav","null","audio-keyboard-response","304","2.1.0","694620","F=YES, J=NO","zmdztcv1w5","2","71","68","75","","","","","","","","","","","","","","","",""
"800","
          <p id=""word"" style=""font-size: 40px;"">swint</p>
          <p style=""font-size: 16px;"">F = YES &nbsp;&nbsp;&nbsp; J = NO</p>
        ","j","html-keyboard-response","305","2.1.0","695420","F=YES, J=NO","zmdztcv1w5","2","71","68","75","","","","","","","","","swint","trust","pseudoword","pseudoword","j","true","",""
"null","<p style=""font-size: 50px;"">+</p>","null","html-keyboard-response","306","2.1.0","695721","F=YES, J=NO","zmdztcv1w5","2","71","68","75","","","","","","","","","","","","","","","",""
"null","audio/beep-329314.mp3","null","audio-keyboard-response","307","2.1.0","697549","F=YES, J=NO","zmdztcv1w5","2","71","68","75","","","","","","","","","","","","","","","",""
"null","audio/sand.wav","null","audio-keyboard-response","308","2.1.0","698471","F=YES, J=NO","zmdztcv1w5","2","71","68","75","","","","","","","","","","","","","","","",""
"659","
          <p id=""word"" style=""font-size: 40px;"">possess</p>
          <p style=""font-size: 16px;"">F = YES &nbsp;&nbsp;&nbsp; J = NO</p>
        ","j","html-keyboard-response","309","2.1.0","699131","F=YES, J=NO","zmdztcv1w5","2","71","68","75","","","","","","","","","possess","sand","unrelated","experimental","f","false","",""
"null","<p style=""font-size: 50px;"">+</p>","null","html-keyboard-response","310","2.1.0","699439","F=YES, J=NO","zmdztcv1w5","2","71","68","75","","","","","","","","","","","","","","","",""
"null","audio/beep-329314.mp3","null","audio-keyboard-response","311","2.1.0","701246","F=YES, J=NO","zmdztcv1w5","2","71","68","75","","","","","","","","","","","","","","","",""
"null","audio/baby.wav","null","audio-keyboard-response","312","2.1.0","701987","F=YES, J=NO","zmdztcv1w5","2","71","68","75","","","","","","","","","","","","","","","",""
"976","
          <p id=""word"" style=""font-size: 40px;"">lift</p>
          <p style=""font-size: 16px;"">F = YES &nbsp;&nbsp;&nbsp; J = NO</p>
        ","f","html-keyboard-response","313","2.1.0","702963","F=YES, J=NO","zmdztcv1w5","2","71","68","75","","","","","","","","","lift","baby","filler","filler","f","true","",""
"null","<p style=""font-size: 50px;"">+</p>","null","html-keyboard-response","314","2.1.0","703269","F=YES, J=NO","zmdztcv1w5","2","71","68","75","","","","","","","","","","","","","","","",""
"null","audio/beep-329314.mp3","null","audio-keyboard-response","315","2.1.0","705082","F=YES, J=NO","zmdztcv1w5","2","71","68","75","","","","","","","","","","","","","","","",""
"null","audio/truth1.wav","null","audio-keyboard-response","316","2.1.0","705914","F=YES, J=NO","zmdztcv1w5","2","71","68","75","","","","","","","","","","","","","","","",""
"624","
          <p id=""word"" style=""font-size: 40px;"">calitom</p>
          <p style=""font-size: 16px;"">F = YES &nbsp;&nbsp;&nbsp; J = NO</p>
        ","j","html-keyboard-response","317","2.1.0","706537","F=YES, J=NO","zmdztcv1w5","2","71","68","75","","","","","","","","","calitom","truth1","pseudoword","pseudoword","j","true","",""
"null","<p style=""font-size: 50px;"">+</p>","null","html-keyboard-response","318","2.1.0","706846","F=YES, J=NO","zmdztcv1w5","2","71","68","75","","","","","","","","","","","","","","","",""
"null","audio/beep-329314.mp3","null","audio-keyboard-response","319","2.1.0","708658","F=YES, J=NO","zmdztcv1w5","2","71","68","75","","","","","","","","","","","","","","","",""
"null","audio/mind.wav","null","audio-keyboard-response","320","2.1.0","709506","F=YES, J=NO","zmdztcv1w5","2","71","68","75","","","","","","","","","","","","","","","",""
"624","
          <p id=""word"" style=""font-size: 40px;"">crainate</p>
          <p style=""font-size: 16px;"">F = YES &nbsp;&nbsp;&nbsp; J = NO</p>
        ","j","html-keyboard-response","321","2.1.0","710131","F=YES, J=NO","zmdztcv1w5","2","71","68","75","","","","","","","","","crainate","mind","pseudoword","pseudoword","j","true","",""
"null","<p style=""font-size: 50px;"">+</p>","null","html-keyboard-response","322","2.1.0","710437","F=YES, J=NO","zmdztcv1w5","2","71","68","75","","","","","","","","","","","","","","","",""
"null","audio/beep-329314.mp3","null","audio-keyboard-response","323","2.1.0","712267","F=YES, J=NO","zmdztcv1w5","2","71","68","75","","","","","","","","","","","","","","","",""
"null","audio/window1.wav","null","audio-keyboard-response","324","2.1.0","713152","F=YES, J=NO","zmdztcv1w5","2","71","68","75","","","","","","","","","","","","","","","",""
"526","
          <p id=""word"" style=""font-size: 40px;"">break</p>
          <p style=""font-size: 16px;"">F = YES &nbsp;&nbsp;&nbsp; J = NO</p>
        ","f","html-keyboard-response","325","2.1.0","713678","F=YES, J=NO","zmdztcv1w5","2","71","68","75","","","","","","","","","break","window1","literal","experimental","f","true","",""
"null","<p style=""font-size: 50px;"">+</p>","null","html-keyboard-response","326","2.1.0","713986","F=YES, J=NO","zmdztcv1w5","2","71","68","75","","","","","","","","","","","","","","","",""
"null","audio/beep-329314.mp3","null","audio-keyboard-response","327","2.1.0","715801","F=YES, J=NO","zmdztcv1w5","2","71","68","75","","","","","","","","","","","","","","","",""
"null","audio/sugar1.wav","null","audio-keyboard-response","328","2.1.0","716568","F=YES, J=NO","zmdztcv1w5","2","71","68","75","","","","","","","","","","","","","","","",""
"738","
          <p id=""word"" style=""font-size: 40px;"">approach</p>
          <p style=""font-size: 16px;"">F = YES &nbsp;&nbsp;&nbsp; J = NO</p>
        ","f","html-keyboard-response","329","2.1.0","717307","F=YES, J=NO","zmdztcv1w5","2","71","68","75","","","","","","","","","approach","sugar1","unrelated","experimental","f","true","",""
"null","<p style=""font-size: 50px;"">+</p>","null","html-keyboard-response","330","2.1.0","717612","F=YES, J=NO","zmdztcv1w5","2","71","68","75","","","","","","","","","","","","","","","",""
"null","audio/beep-329314.mp3","null","audio-keyboard-response","331","2.1.0","719559","F=YES, J=NO","zmdztcv1w5","2","71","68","75","","","","","","","","","","","","","","","",""
"null","audio/client1.wav","null","audio-keyboard-response","332","2.1.0","720522","F=YES, J=NO","zmdztcv1w5","2","71","68","75","","","","","","","","","","","","","","","",""
"664","
          <p id=""word"" style=""font-size: 40px;"">droothe</p>
          <p style=""font-size: 16px;"">F = YES &nbsp;&nbsp;&nbsp; J = NO</p>
        ","j","html-keyboard-response","333","2.1.0","721185","F=YES, J=NO","zmdztcv1w5","2","71","68","75","","","","","","","","","droothe","client1","pseudoword","pseudoword","j","true","",""
"null","<p style=""font-size: 50px;"">+</p>","null","html-keyboard-response","334","2.1.0","721489","F=YES, J=NO","zmdztcv1w5","2","71","68","75","","","","","","","","","","","","","","","",""
"null","audio/beep-329314.mp3","null","audio-keyboard-response","335","2.1.0","723307","F=YES, J=NO","zmdztcv1w5","2","71","68","75","","","","","","","","","","","","","","","",""
"null","audio/belief.wav","null","audio-keyboard-response","336","2.1.0","724214","F=YES, J=NO","zmdztcv1w5","2","71","68","75","","","","","","","","","","","","","","","",""
"526","
          <p id=""word"" style=""font-size: 40px;"">share</p>
          <p style=""font-size: 16px;"">F = YES &nbsp;&nbsp;&nbsp; J = NO</p>
        ","f","html-keyboard-response","337","2.1.0","724740","F=YES, J=NO","zmdztcv1w5","2","71","68","75","","","","","","","","","share","belief","metaphor","experimental","f","true","",""
"null","<p style=""font-size: 50px;"">+</p>","null","html-keyboard-response","338","2.1.0","725063","F=YES, J=NO","zmdztcv1w5","2","71","68","75","","","","","","","","","","","","","","","",""
"null","audio/beep-329314.mp3","null","audio-keyboard-response","339","2.1.0","726888","F=YES, J=NO","zmdztcv1w5","2","71","68","75","","","","","","","","","","","","","","","",""
"null","audio/mouth1.wav","null","audio-keyboard-response","340","2.1.0","727756","F=YES, J=NO","zmdztcv1w5","2","71","68","75","","","","","","","","","","","","","","","",""
"667","
          <p id=""word"" style=""font-size: 40px;"">spolial</p>
          <p style=""font-size: 16px;"">F = YES &nbsp;&nbsp;&nbsp; J = NO</p>
        ","j","html-keyboard-response","341","2.1.0","728423","F=YES, J=NO","zmdztcv1w5","2","71","68","75","","","","","","","","","spolial","mouth1","pseudoword","pseudoword","j","true","",""
"null","<p style=""font-size: 50px;"">+</p>","null","html-keyboard-response","342","2.1.0","728727","F=YES, J=NO","zmdztcv1w5","2","71","68","75","","","","","","","","","","","","","","","",""
"null","audio/beep-329314.mp3","null","audio-keyboard-response","343","2.1.0","730534","F=YES, J=NO","zmdztcv1w5","2","71","68","75","","","","","","","","","","","","","","","",""
"null","audio/neck.wav","null","audio-keyboard-response","344","2.1.0","731362","F=YES, J=NO","zmdztcv1w5","2","71","68","75","","","","","","","","","","","","","","","",""
"641","
          <p id=""word"" style=""font-size: 40px;"">werling</p>
          <p style=""font-size: 16px;"">F = YES &nbsp;&nbsp;&nbsp; J = NO</p>
        ","j","html-keyboard-response","345","2.1.0","732004","F=YES, J=NO","zmdztcv1w5","2","71","68","75","","","","","","","","","werling","neck","pseudoword","pseudoword","j","true","",""
"null","<p style=""font-size: 50px;"">+</p>","null","html-keyboard-response","346","2.1.0","732314","F=YES, J=NO","zmdztcv1w5","2","71","68","75","","","","","","","","","","","","","","","",""
"null","audio/beep-329314.mp3","null","audio-keyboard-response","347","2.1.0","734133","F=YES, J=NO","zmdztcv1w5","2","71","68","75","","","","","","","","","","","","","","","",""
"null","audio/burden.wav","null","audio-keyboard-response","348","2.1.0","734927","F=YES, J=NO","zmdztcv1w5","2","71","68","75","","","","","","","","","","","","","","","",""
"613","
          <p id=""word"" style=""font-size: 40px;"">whotth</p>
          <p style=""font-size: 16px;"">F = YES &nbsp;&nbsp;&nbsp; J = NO</p>
        ","j","html-keyboard-response","349","2.1.0","735541","F=YES, J=NO","zmdztcv1w5","2","71","68","75","","","","","","","","","whotth","burden","pseudoword","pseudoword","j","true","",""
"null","<p style=""font-size: 50px;"">+</p>","null","html-keyboard-response","350","2.1.0","735849","F=YES, J=NO","zmdztcv1w5","2","71","68","75","","","","","","","","","","","","","","","",""
"null","audio/beep-329314.mp3","null","audio-keyboard-response","351","2.1.0","737654","F=YES, J=NO","zmdztcv1w5","2","71","68","75","","","","","","","","","","","","","","","",""
"null","audio/battle1.wav","null","audio-keyboard-response","352","2.1.0","738408","F=YES, J=NO","zmdztcv1w5","2","71","68","75","","","","","","","","","","","","","","","",""
"840","
          <p id=""word"" style=""font-size: 40px;"">boil</p>
          <p style=""font-size: 16px;"">F = YES &nbsp;&nbsp;&nbsp; J = NO</p>
        ","f","html-keyboard-response","353","2.1.0","739249","F=YES, J=NO","zmdztcv1w5","2","71","68","75","","","","","","","","","boil","battle1","filler","filler","f","true","",""
"null","<p style=""font-size: 50px;"">+</p>","null","html-keyboard-response","354","2.1.0","739553","F=YES, J=NO","zmdztcv1w5","2","71","68","75","","","","","","","","","","","","","","","",""
"null","audio/beep-329314.mp3","null","audio-keyboard-response","355","2.1.0","741366","F=YES, J=NO","zmdztcv1w5","2","71","68","75","","","","","","","","","","","","","","","",""
"null","audio/radio1.wav","null","audio-keyboard-response","356","2.1.0","742260","F=YES, J=NO","zmdztcv1w5","2","71","68","75","","","","","","","","","","","","","","","",""
"596","
          <p id=""word"" style=""font-size: 40px;"">spend</p>
          <p style=""font-size: 16px;"">F = YES &nbsp;&nbsp;&nbsp; J = NO</p>
        ","f","html-keyboard-response","357","2.1.0","742857","F=YES, J=NO","zmdztcv1w5","2","71","68","75","","","","","","","","","spend","radio1","unrelated","experimental","f","true","",""
"null","<p style=""font-size: 50px;"">+</p>","null","html-keyboard-response","358","2.1.0","743158","F=YES, J=NO","zmdztcv1w5","2","71","68","75","","","","","","","","","","","","","","","",""
"null","audio/beep-329314.mp3","null","audio-keyboard-response","359","2.1.0","744975","F=YES, J=NO","zmdztcv1w5","2","71","68","75","","","","","","","","","","","","","","","",""
"null","audio/beach1.wav","null","audio-keyboard-response","360","2.1.0","745868","F=YES, J=NO","zmdztcv1w5","2","71","68","75","","","","","","","","","","","","","","","",""
"576","
          <p id=""word"" style=""font-size: 40px;"">drive</p>
          <p style=""font-size: 16px;"">F = YES &nbsp;&nbsp;&nbsp; J = NO</p>
        ","f","html-keyboard-response","361","2.1.0","746445","F=YES, J=NO","zmdztcv1w5","2","71","68","75","","","","","","","","","drive","beach1","filler","filler","f","true","",""
"1453","<p>Excellent! You have finished block 3 of 8.</p>
                     <p>Feel free to take a 30 second break.</p>
                     <p>Press any key when you're ready to continue.</p>","f","html-keyboard-response","362","2.1.0","747898","F=YES, J=NO","zmdztcv1w5","2","71","68","75","","","","","","","","","","","","","","","",""
"1138","<p>Starting main block 4 of 8. Press any key to continue.</p>","f","html-keyboard-response","363","2.1.0","749037","F=YES, J=NO","zmdztcv1w5","2","71","68","75","","","","","","","","","","","","","","","",""
"null","<p style=""font-size: 50px;"">+</p>","null","html-keyboard-response","364","2.1.0","749343","F=YES, J=NO","zmdztcv1w5","2","71","68","75","","","","","","","","","","","","","","","",""
"null","audio/beep-329314.mp3","null","audio-keyboard-response","365","2.1.0","751197","F=YES, J=NO","zmdztcv1w5","2","71","68","75","","","","","","","","","","","","","","","",""
"null","audio/voice.wav","null","audio-keyboard-response","366","2.1.0","752074","F=YES, J=NO","zmdztcv1w5","2","71","68","75","","","","","","","","","","","","","","","",""
"761","
          <p id=""word"" style=""font-size: 40px;"">grintle</p>
          <p style=""font-size: 16px;"">F = YES &nbsp;&nbsp;&nbsp; J = NO</p>
        ","j","html-keyboard-response","367","2.1.0","752836","F=YES, J=NO","zmdztcv1w5","2","71","68","75","","","","","","","","","grintle","voice","pseudoword","pseudoword","j","true","",""
"null","<p style=""font-size: 50px;"">+</p>","null","html-keyboard-response","368","2.1.0","753144","F=YES, J=NO","zmdztcv1w5","2","71","68","75","","","","","","","","","","","","","","","",""
"null","audio/beep-329314.mp3","null","audio-keyboard-response","369","2.1.0","754960","F=YES, J=NO","zmdztcv1w5","2","71","68","75","","","","","","","","","","","","","","","",""
"null","audio/breath.wav","null","audio-keyboard-response","370","2.1.0","755806","F=YES, J=NO","zmdztcv1w5","2","71","68","75","","","","","","","","","","","","","","","",""
"641","
          <p id=""word"" style=""font-size: 40px;"">construct</p>
          <p style=""font-size: 16px;"">F = YES &nbsp;&nbsp;&nbsp; J = NO</p>
        ","f","html-keyboard-response","371","2.1.0","756448","F=YES, J=NO","zmdztcv1w5","2","71","68","75","","","","","","","","","construct","breath","unrelated","experimental","f","true","",""
"null","<p style=""font-size: 50px;"">+</p>","null","html-keyboard-response","372","2.1.0","756761","F=YES, J=NO","zmdztcv1w5","2","71","68","75","","","","","","","","","","","","","","","",""
"null","audio/beep-329314.mp3","null","audio-keyboard-response","373","2.1.0","758584","F=YES, J=NO","zmdztcv1w5","2","71","68","75","","","","","","","","","","","","","","","",""
"null","audio/brain.wav","null","audio-keyboard-response","374","2.1.0","759355","F=YES, J=NO","zmdztcv1w5","2","71","68","75","","","","","","","","","","","","","","","",""
"585","
          <p id=""word"" style=""font-size: 40px;"">throw</p>
          <p style=""font-size: 16px;"">F = YES &nbsp;&nbsp;&nbsp; J = NO</p>
        ","f","html-keyboard-response","375","2.1.0","759939","F=YES, J=NO","zmdztcv1w5","2","71","68","75","","","","","","","","","throw","brain","filler","filler","f","true","",""
"null","<p style=""font-size: 50px;"">+</p>","null","html-keyboard-response","376","2.1.0","760244","F=YES, J=NO","zmdztcv1w5","2","71","68","75","","","","","","","","","","","","","","","",""
"null","audio/beep-329314.mp3","null","audio-keyboard-response","377","2.1.0","762070","F=YES, J=NO","zmdztcv1w5","2","71","68","75","","","","","","","","","","","","","","","",""
"null","audio/ankle1.wav","null","audio-keyboard-response","378","2.1.0","762886","F=YES, J=NO","zmdztcv1w5","2","71","68","75","","","","","","","","","","","","","","","",""
"511","
          <p id=""word"" style=""font-size: 40px;"">kick</p>
          <p style=""font-size: 16px;"">F = YES &nbsp;&nbsp;&nbsp; J = NO</p>
        ","f","html-keyboard-response","379","2.1.0","763398","F=YES, J=NO","zmdztcv1w5","2","71","68","75","","","","","","","","","kick","ankle1","filler","filler","f","true","",""
"null","<p style=""font-size: 50px;"">+</p>","null","html-keyboard-response","380","2.1.0","763700","F=YES, J=NO","zmdztcv1w5","2","71","68","75","","","","","","","","","","","","","","","",""
"null","audio/beep-329314.mp3","null","audio-keyboard-response","381","2.1.0","765518","F=YES, J=NO","zmdztcv1w5","2","71","68","75","","","","","","","","","","","","","","","",""
"null","audio/strength.wav","null","audio-keyboard-response","382","2.1.0","766549","F=YES, J=NO","zmdztcv1w5","2","71","68","75","","","","","","","","","","","","","","","",""
"683","
          <p id=""word"" style=""font-size: 40px;"">plabet</p>
          <p style=""font-size: 16px;"">F = YES &nbsp;&nbsp;&nbsp; J = NO</p>
        ","j","html-keyboard-response","383","2.1.0","767232","F=YES, J=NO","zmdztcv1w5","2","71","68","75","","","","","","","","","plabet","strength","pseudoword","pseudoword","j","true","",""
"null","<p style=""font-size: 50px;"">+</p>","null","html-keyboard-response","384","2.1.0","767547","F=YES, J=NO","zmdztcv1w5","2","71","68","75","","","","","","","","","","","","","","","",""
"null","audio/beep-329314.mp3","null","audio-keyboard-response","385","2.1.0","769378","F=YES, J=NO","zmdztcv1w5","2","71","68","75","","","","","","","","","","","","","","","",""
"null","audio/handle.wav","null","audio-keyboard-response","386","2.1.0","770281","F=YES, J=NO","zmdztcv1w5","2","71","68","75","","","","","","","","","","","","","","","",""
"699","
          <p id=""word"" style=""font-size: 40px;"">moutes</p>
          <p style=""font-size: 16px;"">F = YES &nbsp;&nbsp;&nbsp; J = NO</p>
        ","j","html-keyboard-response","387","2.1.0","770980","F=YES, J=NO","zmdztcv1w5","2","71","68","75","","","","","","","","","moutes","handle","pseudoword","pseudoword","j","true","",""
"null","<p style=""font-size: 50px;"">+</p>","null","html-keyboard-response","388","2.1.0","771288","F=YES, J=NO","zmdztcv1w5","2","71","68","75","","","","","","","","","","","","","","","",""
"null","audio/beep-329314.mp3","null","audio-keyboard-response","389","2.1.0","773103","F=YES, J=NO","zmdztcv1w5","2","71","68","75","","","","","","","","","","","","","","","",""
"null","audio/stain.wav","null","audio-keyboard-response","390","2.1.0","774045","F=YES, J=NO","zmdztcv1w5","2","71","68","75","","","","","","","","","","","","","","","",""
"611","
          <p id=""word"" style=""font-size: 40px;"">rumpsied</p>
          <p style=""font-size: 16px;"">F = YES &nbsp;&nbsp;&nbsp; J = NO</p>
