"rt","stimulus","response","trial_type","trial_index","plugin_version","time_elapsed","response_mapping","subject_id","list_index","lextale_score","lextale_word_score","lextale_nonword_score","success","timeout","failed_images","failed_audio","failed_video","task","isWord","isDummy","target","prime","prime_type","stimulus_type","correct_response","correct","section","question_order"
"178655","
    <div style=""max-width: 800px; margin: auto; text-align: left;"">
      <h2>STANFORD UNIVERSITY</h2>
      <h3>Research Information Sheet</h3>
      <p><strong>Protocol Director:</strong> Robert Hawkins<br>
      <strong>Protocol Title:</strong> Communication and social cognition in natural audiovisual contexts<br>
      <strong>IRB#:</strong> 77226</p>

      <p><strong>DESCRIPTION:</strong> You are invited to participate in a research study about language and communication. The purpose of the research is to understand how you interact and communicate with other people in naturalistic settings as a fluent English speaker. This research will be conducted through the Prolific platform, including participants from the US, UK, and Canada. If you decide to participate in this research, you will play a communication game in a group with one or more partners.</p>

      <p><strong>TIME INVOLVEMENT:</strong> The task will last the amount of time advertised on Prolific. You are free to withdraw from the study at any time.</p>

      <p><strong>RISKS AND BENEFITS:</strong> You may become frustrated if your partner gets distracted, or experience discomfort if other participants in your group send text that is inappropriate for the task. We ask you to please be respectful of other participants you might be interacting with to mitigate these risks. You may also experience discomfort when being asked to discuss or challenge emotionally salient political beliefs. Study data will be stored securely, in compliance with Stanford University standards, minimizing the risk of confidentiality breach. This study advances our scientific understanding of how people communicate and collaborate in naturalistic settings. This study may lead to further insights about what can go wrong in teamwork, suggest potential interventions to overcome these barriers, and help to develop assistive technologies that collaborate with human partners. We cannot and do not guarantee or promise that you will receive any benefits from this study.</p>

      <p><strong>PAYMENTS:</strong> You will receive payment in the amount advertised on Prolific. If you do not complete this study, you will receive prorated payment based on the time that you have spent. Additionally, you may be eligible for bonus payments as described in the instructions.</p>

      <p><strong>PARTICIPANT’S RIGHTS:</strong> If you have read this form and have decided to participate in this project, please understand your participation is voluntary and you have the right to withdraw your consent or discontinue participation at any time without penalty or loss of benefits to which you are otherwise entitled. The alternative is not to participate. You have the right to refuse to answer particular questions. The results of this research study may be presented at scientific or professional meetings or published in scientific journals. Your individual privacy will be maintained in all published and written data resulting from the study. In accordance with scientific norms, the data from this study may be used or shared with other researchers for future research (after removing personally identifying information) without additional consent from you.</p>

      <p><strong>CONTACT INFORMATION:</strong><br>
      Questions: If you have any questions, concerns or complaints about this research, its procedures, risks and benefits, contact the Protocol Director, Robert Hawkins (<a href=""mailto:rdhawkins@stanford.edu"">rdhawkins@stanford.edu</a>, 217-549-6923).<br>
      Independent Contact: If you are not satisfied with how this study is being conducted, or if you have any concerns, complaints, or general questions about the research or your rights as a participant, please contact the Stanford Institutional Review Board (IRB) to speak to someone independent of the research team at 650-723-2480 or toll free at 1-866-680-2906, or email at <a href=""mailto:irbnon-med@stanford.edu"">irbnon-med@stanford.edu</a>. You can also write to the Stanford IRB, Stanford University, 1705 El Camino Real, Palo Alto, CA 94306.</p>

      <p><strong>Please save or print a copy of this page for your records.</strong></p>
      <p>If you agree to participate in this research, click ""Continue"" below.</p>
    </div>
  ","0","html-button-response","0","2.1.0","178671","F=YES, J=NO","zs0kkpad0w","0","53","85","20","","","","","","","","","","","","","","","",""
"5249","
    <div style=""max-width: 800px; margin: auto; text-align: left;"">
      <h2>Welcome!</h2>
      <p>Thank you for participating in this study. The experiment consists of three parts:</p>
      <ol>
        <li>An English vocabulary test</li>
        <li>A main task in which you will hear and see words, and decide whether the written word is a real English word</li>
        <li>A brief survey about your background</li>
      </ol>
      <p>Each part will be introduced before it begins.</p>
      <p>Please make sure you are in a quiet environment and can hear audio clearly for the final task.</p>
      <p style=""margin-top: 2em;"">Press any key to begin.</p>
    </div>
  "," ","html-keyboard-response","1","2.1.0","183922","F=YES, J=NO","zs0kkpad0w","0","53","85","20","","","","","","","","","","","","","","","",""
"","","","preload","2","2.1.0","186202","F=YES, J=NO","zs0kkpad0w","0","53","85","20","true","false","[]","[]","[]","","","","","","","","","","",""
"4630","
    <div style=""max-width: 800px; margin: auto; text-align: left;"">
      <h2>Part 1: Vocabulary Test</h2>
      <p>You will now complete the first part of the study: a short English vocabulary test.</p>
      <p>This test is called <strong>LexTALE</strong> and helps us get a general sense of your English proficiency.</p>
      <p style=""margin-top: 2em;"">Press any key to continue.</p>
    </div>
  "," ","html-keyboard-response","3","2.1.0","190834","F=YES, J=NO","zs0kkpad0w","0","53","85","20","","","","","","","","","","","","","","","",""
"12127","
    <div style=""max-width: 800px; margin: auto; text-align: left;"">
      <h2>LexTALE Vocabulary Test</h2>
      <p>In this test, you will see a series of letter strings—one at a time.</p>
      <p>Your task is to decide whether each string is a real English word.</p>
      <p><strong>Key responses:</strong></p>
      <ul>
        <li><strong>F</strong> = YES (real English word)</li>
        <li><strong>J</strong> = NO (not a real English word)</li>
      </ul>
      <p>There is no time limit, but please try to be accurate.</p>
      <p style=""margin-top: 2em;"">Press any key to begin.</p>
    </div>
  "," ","html-keyboard-response","4","2.1.0","202961","F=YES, J=NO","zs0kkpad0w","0","53","85","20","","","","","","","","","","","","","","","",""
"3614","
  <p style=""font-size: 40px;"">platery</p>
  <p style=""font-size: 16px;"">F = YES &nbsp;&nbsp;&nbsp; J = NO</p>
","f","html-keyboard-response","5","2.1.0","206578","F=YES, J=NO","zs0kkpad0w","0","53","85","20","","","","","","lextale","false","true","","","","","","","",""
"2102","
  <p style=""font-size: 40px;"">denial</p>
  <p style=""font-size: 16px;"">F = YES &nbsp;&nbsp;&nbsp; J = NO</p>
","f","html-keyboard-response","6","2.1.0","208682","F=YES, J=NO","zs0kkpad0w","0","53","85","20","","","","","","lextale","true","true","","","","","","","",""
"3415","
  <p style=""font-size: 40px;"">marrit</p>
  <p style=""font-size: 16px;"">F = YES &nbsp;&nbsp;&nbsp; J = NO</p>
","f","html-keyboard-response","7","2.1.0","212098","F=YES, J=NO","zs0kkpad0w","0","53","85","20","","","","","","lextale","false","true","","","","","","","",""
"1135","
  <p style=""font-size: 40px;"">bottle</p>
  <p style=""font-size: 16px;"">F = YES &nbsp;&nbsp;&nbsp; J = NO</p>
","f","html-keyboard-response","8","2.1.0","213234","F=YES, J=NO","zs0kkpad0w","0","53","85","20","","","","","","lextale","true","false","","","","","","","",""
"2103","
  <p style=""font-size: 40px;"">birst</p>
  <p style=""font-size: 16px;"">F = YES &nbsp;&nbsp;&nbsp; J = NO</p>
","f","html-keyboard-response","9","2.1.0","215338","F=YES, J=NO","zs0kkpad0w","0","53","85","20","","","","","","lextale","false","false","","","","","","","",""
"847","
  <p style=""font-size: 40px;"">envy</p>
  <p style=""font-size: 16px;"">F = YES &nbsp;&nbsp;&nbsp; J = NO</p>
","f","html-keyboard-response","10","2.1.0","216186","F=YES, J=NO","zs0kkpad0w","0","53","85","20","","","","","","lextale","true","false","","","","","","","",""
"1927","
  <p style=""font-size: 40px;"">brang</p>
  <p style=""font-size: 16px;"">F = YES &nbsp;&nbsp;&nbsp; J = NO</p>
","f","html-keyboard-response","11","2.1.0","218114","F=YES, J=NO","zs0kkpad0w","0","53","85","20","","","","","","lextale","false","false","","","","","","","",""
"831","
  <p style=""font-size: 40px;"">huge</p>
  <p style=""font-size: 16px;"">F = YES &nbsp;&nbsp;&nbsp; J = NO</p>
","f","html-keyboard-response","12","2.1.0","218946","F=YES, J=NO","zs0kkpad0w","0","53","85","20","","","","","","lextale","true","false","","","","","","","",""
"1935","
  <p style=""font-size: 40px;"">plove</p>
  <p style=""font-size: 16px;"">F = YES &nbsp;&nbsp;&nbsp; J = NO</p>
","f","html-keyboard-response","13","2.1.0","220882","F=YES, J=NO","zs0kkpad0w","0","53","85","20","","","","","","lextale","false","false","","","","","","","",""
"879","
  <p style=""font-size: 40px;"">border</p>
  <p style=""font-size: 16px;"">F = YES &nbsp;&nbsp;&nbsp; J = NO</p>
","f","html-keyboard-response","14","2.1.0","221762","F=YES, J=NO","zs0kkpad0w","0","53","85","20","","","","","","lextale","true","false","","","","","","","",""
"2119","
  <p style=""font-size: 40px;"">flimsy</p>
  <p style=""font-size: 16px;"">F = YES &nbsp;&nbsp;&nbsp; J = NO</p>
","f","html-keyboard-response","15","2.1.0","223882","F=YES, J=NO","zs0kkpad0w","0","53","85","20","","","","","","lextale","true","false","","","","","","","",""
"775","
  <p style=""font-size: 40px;"">drain</p>
  <p style=""font-size: 16px;"">F = YES &nbsp;&nbsp;&nbsp; J = NO</p>
","f","html-keyboard-response","16","2.1.0","224658","F=YES, J=NO","zs0kkpad0w","0","53","85","20","","","","","","lextale","true","false","","","","","","","",""
"983","
  <p style=""font-size: 40px;"">twindle</p>
  <p style=""font-size: 16px;"">F = YES &nbsp;&nbsp;&nbsp; J = NO</p>
","f","html-keyboard-response","17","2.1.0","225642","F=YES, J=NO","zs0kkpad0w","0","53","85","20","","","","","","lextale","false","false","","","","","","","",""
"1047","
  <p style=""font-size: 40px;"">propose</p>
  <p style=""font-size: 16px;"">F = YES &nbsp;&nbsp;&nbsp; J = NO</p>
","f","html-keyboard-response","18","2.1.0","226690","F=YES, J=NO","zs0kkpad0w","0","53","85","20","","","","","","lextale","true","false","","","","","","","",""
"13383","
  <p style=""font-size: 40px;"">forlay</p>
  <p style=""font-size: 16px;"">F = YES &nbsp;&nbsp;&nbsp; J = NO</p>
","j","html-keyboard-response","19","2.1.0","240073","F=YES, J=NO","zs0kkpad0w","0","53","85","20","","","","","","lextale","false","false","","","","","","","",""
"1919","
  <p style=""font-size: 40px;"">tenant</p>
  <p style=""font-size: 16px;"">F = YES &nbsp;&nbsp;&nbsp; J = NO</p>
","f","html-keyboard-response","20","2.1.0","241994","F=YES, J=NO","zs0kkpad0w","0","53","85","20","","","","","","lextale","true","false","","","","","","","",""
"1159","
  <p style=""font-size: 40px;"">strain</p>
  <p style=""font-size: 16px;"">F = YES &nbsp;&nbsp;&nbsp; J = NO</p>
","f","html-keyboard-response","21","2.1.0","243153","F=YES, J=NO","zs0kkpad0w","0","53","85","20","","","","","","lextale","true","false","","","","","","","",""
"1591","
  <p style=""font-size: 40px;"">holster</p>
  <p style=""font-size: 16px;"">F = YES &nbsp;&nbsp;&nbsp; J = NO</p>
","f","html-keyboard-response","22","2.1.0","244745","F=YES, J=NO","zs0kkpad0w","0","53","85","20","","","","","","lextale","true","false","","","","","","","",""
"10975","
  <p style=""font-size: 40px;"">hinder</p>
  <p style=""font-size: 16px;"">F = YES &nbsp;&nbsp;&nbsp; J = NO</p>
","f","html-keyboard-response","23","2.1.0","255721","F=YES, J=NO","zs0kkpad0w","0","53","85","20","","","","","","lextale","true","false","","","","","","","",""
"1207","
  <p style=""font-size: 40px;"">swindle</p>
  <p style=""font-size: 16px;"">F = YES &nbsp;&nbsp;&nbsp; J = NO</p>
","f","html-keyboard-response","24","2.1.0","256929","F=YES, J=NO","zs0kkpad0w","0","53","85","20","","","","","","lextale","true","false","","","","","","","",""
"1983","
  <p style=""font-size: 40px;"">nuder</p>
  <p style=""font-size: 16px;"">F = YES &nbsp;&nbsp;&nbsp; J = NO</p>
","j","html-keyboard-response","25","2.1.0","258913","F=YES, J=NO","zs0kkpad0w","0","53","85","20","","","","","","lextale","false","false","","","","","","","",""
"1706","
  <p style=""font-size: 40px;"">pillow</p>
  <p style=""font-size: 16px;"">F = YES &nbsp;&nbsp;&nbsp; J = NO</p>
","f","html-keyboard-response","26","2.1.0","260625","F=YES, J=NO","zs0kkpad0w","0","53","85","20","","","","","","lextale","true","false","","","","","","","",""
"3663","
  <p style=""font-size: 40px;"">shumble</p>
  <p style=""font-size: 16px;"">F = YES &nbsp;&nbsp;&nbsp; J = NO</p>
","j","html-keyboard-response","27","2.1.0","264289","F=YES, J=NO","zs0kkpad0w","0","53","85","20","","","","","","lextale","false","false","","","","","","","",""
"1295","
  <p style=""font-size: 40px;"">thirst</p>
  <p style=""font-size: 16px;"">F = YES &nbsp;&nbsp;&nbsp; J = NO</p>
","f","html-keyboard-response","28","2.1.0","265585","F=YES, J=NO","zs0kkpad0w","0","53","85","20","","","","","","lextale","true","false","","","","","","","",""
"1423","
  <p style=""font-size: 40px;"">unsail</p>
  <p style=""font-size: 16px;"">F = YES &nbsp;&nbsp;&nbsp; J = NO</p>
","f","html-keyboard-response","29","2.1.0","267003","F=YES, J=NO","zs0kkpad0w","0","53","85","20","","","","","","lextale","false","false","","","","","","","",""
"847","
  <p style=""font-size: 40px;"">rifle</p>
  <p style=""font-size: 16px;"">F = YES &nbsp;&nbsp;&nbsp; J = NO</p>
","f","html-keyboard-response","30","2.1.0","267851","F=YES, J=NO","zs0kkpad0w","0","53","85","20","","","","","","lextale","true","false","","","","","","","",""
"1751","
  <p style=""font-size: 40px;"">mush</p>
  <p style=""font-size: 16px;"">F = YES &nbsp;&nbsp;&nbsp; J = NO</p>
","f","html-keyboard-response","31","2.1.0","269603","F=YES, J=NO","zs0kkpad0w","0","53","85","20","","","","","","lextale","false","false","","","","","","","",""
"887","
  <p style=""font-size: 40px;"">drench</p>
  <p style=""font-size: 16px;"">F = YES &nbsp;&nbsp;&nbsp; J = NO</p>
","f","html-keyboard-response","32","2.1.0","270491","F=YES, J=NO","zs0kkpad0w","0","53","85","20","","","","","","lextale","true","false","","","","","","","",""
"9039","
  <p style=""font-size: 40px;"">snirt</p>
  <p style=""font-size: 16px;"">F = YES &nbsp;&nbsp;&nbsp; J = NO</p>
","f","html-keyboard-response","33","2.1.0","279531","F=YES, J=NO","zs0kkpad0w","0","53","85","20","","","","","","lextale","false","false","","","","","","","",""
"1175","
  <p style=""font-size: 40px;"">bitter</p>
  <p style=""font-size: 16px;"">F = YES &nbsp;&nbsp;&nbsp; J = NO</p>
","f","html-keyboard-response","34","2.1.0","280707","F=YES, J=NO","zs0kkpad0w","0","53","85","20","","","","","","lextale","true","false","","","","","","","",""
"9759","
  <p style=""font-size: 40px;"">pliff</p>
  <p style=""font-size: 16px;"">F = YES &nbsp;&nbsp;&nbsp; J = NO</p>
","j","html-keyboard-response","35","2.1.0","290467","F=YES, J=NO","zs0kkpad0w","0","53","85","20","","","","","","lextale","false","false","","","","","","","",""
"2575","
  <p style=""font-size: 40px;"">tablet</p>
  <p style=""font-size: 16px;"">F = YES &nbsp;&nbsp;&nbsp; J = NO</p>
","f","html-keyboard-response","36","2.1.0","293043","F=YES, J=NO","zs0kkpad0w","0","53","85","20","","","","","","lextale","true","false","","","","","","","",""
"1975","
  <p style=""font-size: 40px;"">glimmer</p>
  <p style=""font-size: 16px;"">F = YES &nbsp;&nbsp;&nbsp; J = NO</p>
","f","html-keyboard-response","37","2.1.0","295019","F=YES, J=NO","zs0kkpad0w","0","53","85","20","","","","","","lextale","true","false","","","","","","","",""
"10463","
  <p style=""font-size: 40px;"">slink</p>
  <p style=""font-size: 16px;"">F = YES &nbsp;&nbsp;&nbsp; J = NO</p>
","f","html-keyboard-response","38","2.1.0","305482","F=YES, J=NO","zs0kkpad0w","0","53","85","20","","","","","","lextale","true","false","","","","","","","",""
"767","
  <p style=""font-size: 40px;"">clever</p>
  <p style=""font-size: 16px;"">F = YES &nbsp;&nbsp;&nbsp; J = NO</p>
","f","html-keyboard-response","39","2.1.0","306250","F=YES, J=NO","zs0kkpad0w","0","53","85","20","","","","","","lextale","true","false","","","","","","","",""
"1839","
  <p style=""font-size: 40px;"">grum</p>
  <p style=""font-size: 16px;"">F = YES &nbsp;&nbsp;&nbsp; J = NO</p>
","f","html-keyboard-response","40","2.1.0","308091","F=YES, J=NO","zs0kkpad0w","0","53","85","20","","","","","","lextale","false","false","","","","","","","",""
"727","
  <p style=""font-size: 40px;"">string</p>
  <p style=""font-size: 16px;"">F = YES &nbsp;&nbsp;&nbsp; J = NO</p>
","f","html-keyboard-response","41","2.1.0","308819","F=YES, J=NO","zs0kkpad0w","0","53","85","20","","","","","","lextale","true","false","","","","","","","",""
"4343","
  <p style=""font-size: 40px;"">plim</p>
  <p style=""font-size: 16px;"">F = YES &nbsp;&nbsp;&nbsp; J = NO</p>
","f","html-keyboard-response","42","2.1.0","313162","F=YES, J=NO","zs0kkpad0w","0","53","85","20","","","","","","lextale","false","false","","","","","","","",""
"775","
  <p style=""font-size: 40px;"">cable</p>
  <p style=""font-size: 16px;"">F = YES &nbsp;&nbsp;&nbsp; J = NO</p>
","f","html-keyboard-response","43","2.1.0","313938","F=YES, J=NO","zs0kkpad0w","0","53","85","20","","","","","","lextale","true","false","","","","","","","",""
"2095","
  <p style=""font-size: 40px;"">shrivel</p>
  <p style=""font-size: 16px;"">F = YES &nbsp;&nbsp;&nbsp; J = NO</p>
","f","html-keyboard-response","44","2.1.0","316034","F=YES, J=NO","zs0kkpad0w","0","53","85","20","","","","","","lextale","true","false","","","","","","","",""
"10015","
  <p style=""font-size: 40px;"">tarnish</p>
  <p style=""font-size: 16px;"">F = YES &nbsp;&nbsp;&nbsp; J = NO</p>
","f","html-keyboard-response","45","2.1.0","326050","F=YES, J=NO","zs0kkpad0w","0","53","85","20","","","","","","lextale","true","false","","","","","","","",""
"1383","
  <p style=""font-size: 40px;"">blim</p>
  <p style=""font-size: 16px;"">F = YES &nbsp;&nbsp;&nbsp; J = NO</p>
","f","html-keyboard-response","46","2.1.0","327439","F=YES, J=NO","zs0kkpad0w","0","53","85","20","","","","","","lextale","false","false","","","","","","","",""
"10663","
  <p style=""font-size: 40px;"">stifle</p>
  <p style=""font-size: 16px;"">F = YES &nbsp;&nbsp;&nbsp; J = NO</p>
","f","html-keyboard-response","47","2.1.0","338103","F=YES, J=NO","zs0kkpad0w","0","53","85","20","","","","","","lextale","true","false","","","","","","","",""
"1415","
  <p style=""font-size: 40px;"">bint</p>
  <p style=""font-size: 16px;"">F = YES &nbsp;&nbsp;&nbsp; J = NO</p>
","f","html-keyboard-response","48","2.1.0","339519","F=YES, J=NO","zs0kkpad0w","0","53","85","20","","","","","","lextale","false","false","","","","","","","",""
"727","
  <p style=""font-size: 40px;"">purple</p>
  <p style=""font-size: 16px;"">F = YES &nbsp;&nbsp;&nbsp; J = NO</p>
","f","html-keyboard-response","49","2.1.0","340247","F=YES, J=NO","zs0kkpad0w","0","53","85","20","","","","","","lextale","true","false","","","","","","","",""
"10007","
  <p style=""font-size: 40px;"">wriggle</p>
  <p style=""font-size: 16px;"">F = YES &nbsp;&nbsp;&nbsp; J = NO</p>
","f","html-keyboard-response","50","2.1.0","350255","F=YES, J=NO","zs0kkpad0w","0","53","85","20","","","","","","lextale","true","false","","","","","","","",""
"7007","
  <p style=""font-size: 40px;"">mangle</p>
  <p style=""font-size: 16px;"">F = YES &nbsp;&nbsp;&nbsp; J = NO</p>
","f","html-keyboard-response","51","2.1.0","357263","F=YES, J=NO","zs0kkpad0w","0","53","85","20","","","","","","lextale","true","false","","","","","","","",""
"1287","
  <p style=""font-size: 40px;"">shramp</p>
  <p style=""font-size: 16px;"">F = YES &nbsp;&nbsp;&nbsp; J = NO</p>
","f","html-keyboard-response","52","2.1.0","358551","F=YES, J=NO","zs0kkpad0w","0","53","85","20","","","","","","lextale","false","false","","","","","","","",""
"831","
  <p style=""font-size: 40px;"">flirt</p>
  <p style=""font-size: 16px;"">F = YES &nbsp;&nbsp;&nbsp; J = NO</p>
","f","html-keyboard-response","53","2.1.0","359383","F=YES, J=NO","zs0kkpad0w","0","53","85","20","","","","","","lextale","true","false","","","","","","","",""
"9999","
  <p style=""font-size: 40px;"">frip</p>
  <p style=""font-size: 16px;"">F = YES &nbsp;&nbsp;&nbsp; J = NO</p>
","f","html-keyboard-response","54","2.1.0","369383","F=YES, J=NO","zs0kkpad0w","0","53","85","20","","","","","","lextale","false","false","","","","","","","",""
"1111","
  <p style=""font-size: 40px;"">tangle</p>
  <p style=""font-size: 16px;"">F = YES &nbsp;&nbsp;&nbsp; J = NO</p>
","f","html-keyboard-response","55","2.1.0","370495","F=YES, J=NO","zs0kkpad0w","0","53","85","20","","","","","","lextale","true","false","","","","","","","",""
"807","
  <p style=""font-size: 40px;"">crumble</p>
  <p style=""font-size: 16px;"">F = YES &nbsp;&nbsp;&nbsp; J = NO</p>
","f","html-keyboard-response","56","2.1.0","371303","F=YES, J=NO","zs0kkpad0w","0","53","85","20","","","","","","lextale","true","false","","","","","","","",""
"983","
  <p style=""font-size: 40px;"">wrinkle</p>
  <p style=""font-size: 16px;"">F = YES &nbsp;&nbsp;&nbsp; J = NO</p>
","f","html-keyboard-response","57","2.1.0","372287","F=YES, J=NO","zs0kkpad0w","0","53","85","20","","","","","","lextale","true","false","","","","","","","",""
"1407","
  <p style=""font-size: 40px;"">slumb</p>
  <p style=""font-size: 16px;"">F = YES &nbsp;&nbsp;&nbsp; J = NO</p>
","f","html-keyboard-response","58","2.1.0","373695","F=YES, J=NO","zs0kkpad0w","0","53","85","20","","","","","","lextale","false","false","","","","","","","",""
"727","
  <p style=""font-size: 40px;"">jungle</p>
  <p style=""font-size: 16px;"">F = YES &nbsp;&nbsp;&nbsp; J = NO</p>
","f","html-keyboard-response","59","2.1.0","374423","F=YES, J=NO","zs0kkpad0w","0","53","85","20","","","","","","lextale","true","false","","","","","","","",""
"8519","
  <p style=""font-size: 40px;"">frolick</p>
  <p style=""font-size: 16px;"">F = YES &nbsp;&nbsp;&nbsp; J = NO</p>
","f","html-keyboard-response","60","2.1.0","382942","F=YES, J=NO","zs0kkpad0w","0","53","85","20","","","","","","lextale","false","false","","","","","","","",""
"3942","
      <h2>LexTALE Test Completed</h2>
      <p>Your LexTALE vocabulary score is: <strong>53%</strong></p>
      <p>Press any key to continue.</p>
    "," ","html-keyboard-response","61","2.1.0","386886","F=YES, J=NO","zs0kkpad0w","0","53","85","20","","","","","","","","","","","","","","","",""
"9255","
    <div style=""max-width: 800px; margin: auto; text-align: left;"">
      <h2>Break Time</h2>
      <p>You have completed the first part of the study.</p>
      <p>You may take a short <strong>30-second break</strong> before continuing.</p>
      <p>When you’re ready, press any key to continue to the final task.</p>
    </div>
  "," ","html-keyboard-response","62","2.1.0","396140","F=YES, J=NO","zs0kkpad0w","0","53","85","20","","","","","","","","","","","","","","","",""
"18503","
    <div style=""max-width: 800px; margin: auto; text-align: left;"">
      <h2>Part 2: Lexical Decision Task</h2>
      <p>You will now begin the second part of the study.</p>
      <p>Each trial will follow this sequence:</p>
      <ul>
        <li>A fixation cross (+) appears at the center of the screen.</li>
        <li>You will hear a short beep followed by a spoken word.</li>
        <li>A written word will appear briefly on the screen.</li>
      </ul>
      <p>Your task is to judge whether the <strong>written word</strong> is a real English word.</p>
      <p style=""margin-top: 1em;""><strong>Key responses:</strong></p>
      <ul>
        <li><strong>F</strong> = YES (real English word)</li>
        <li><strong>J</strong> = NO (not a real English word)</li>
      </ul>
      <p>Please respond as quickly and accurately as you can.</p>
      <p style=""margin-top: 2em;"">Press any key to continue.</p>
    </div>
  "," ","html-keyboard-response","63","2.1.0","414644","F=YES, J=NO","zs0kkpad0w","0","53","85","20","","","","","","","","","","","","","","","",""
"11727","
    <div style=""max-width: 800px; margin: auto; text-align: left;"">
      <h2>Before You Begin</h2>
      <p>Make sure your sound is turned on.</p>
      <p>You will hear audio during each trial, but your decision should be based only on the <strong>written word</strong> you see on the screen.</p>
      <p><strong>Reminder:</strong></p>
      <ul>
        <li><strong>F</strong> = YES (real English word)</li>
        <li><strong>J</strong> = NO (not a real English word)</li>
      </ul>
      <p style=""margin-top: 2em;"">Press any key when you are ready to begin.</p>
    </div>
  "," ","html-keyboard-response","64","2.1.0","426371","F=YES, J=NO","zs0kkpad0w","0","53","85","20","","","","","","","","","","","","","","","",""
"5735","
    <div style=""max-width: 800px; margin: auto; text-align: left;"">
      <h2>Part 2: Practice Trials</h2>
      <p>You will now complete a few <strong>practice trials</strong> to get familiar with the task.</p>
      <p>These trials are <strong>not scored</strong> and are only to help you get used to the format.</p>
      <p style=""margin-top: 2em;"">Press any key to begin.</p>
    </div>
  "," ","html-keyboard-response","65","2.1.0","432107","F=YES, J=NO","zs0kkpad0w","0","53","85","20","","","","","","","","","","","","","","","",""
"2319","<p>Starting practice block 1 of 2. Press any key to continue.</p>"," ","html-keyboard-response","66","2.1.0","434427","F=YES, J=NO","zs0kkpad0w","0","53","85","20","","","","","","","","","","","","","","","",""
"null","<p style=""font-size: 50px;"">+</p>","null","html-keyboard-response","67","2.1.0","434737","F=YES, J=NO","zs0kkpad0w","0","53","85","20","","","","","","","","","","","","","","","",""
"null","audio/beep-329314.mp3","null","audio-keyboard-response","68","2.1.0","436852","F=YES, J=NO","zs0kkpad0w","0","53","85","20","","","","","","","","","","","","","","","",""
"null","audio/ego.wav","null","audio-keyboard-response","69","2.1.0","437492","F=YES, J=NO","zs0kkpad0w","0","53","85","20","","","","","","","","","","","","","","","",""
"null","
          <p id=""word"" style=""font-size: 40px;"">bruite</p>
          <p style=""font-size: 16px;"">F = YES &nbsp;&nbsp;&nbsp; J = NO</p>
        ","null","html-keyboard-response","70","2.1.0","439003","F=YES, J=NO","zs0kkpad0w","0","53","85","20","","","","","","","","","bruite","ego","pseudoword","pseudoword","j","false","",""
"null","<p style=""font-size: 50px;"">+</p>","null","html-keyboard-response","71","2.1.0","439310","F=YES, J=NO","zs0kkpad0w","0","53","85","20","","","","","","","","","","","","","","","",""
"null","audio/beep-329314.mp3","null","audio-keyboard-response","72","2.1.0","440832","F=YES, J=NO","zs0kkpad0w","0","53","85","20","","","","","","","","","","","","","","","",""
"null","audio/meal.wav","null","audio-keyboard-response","73","2.1.0","441532","F=YES, J=NO","zs0kkpad0w","0","53","85","20","","","","","","","","","","","","","","","",""
"614","
          <p id=""word"" style=""font-size: 40px;"">gallite</p>
          <p style=""font-size: 16px;"">F = YES &nbsp;&nbsp;&nbsp; J = NO</p>
        ","f","html-keyboard-response","74","2.1.0","442147","F=YES, J=NO","zs0kkpad0w","0","53","85","20","","","","","","","","","gallite","meal","pseudoword","pseudoword","j","false","",""
"null","<p style=""font-size: 50px;"">+</p>","null","html-keyboard-response","75","2.1.0","442463","F=YES, J=NO","zs0kkpad0w","0","53","85","20","","","","","","","","","","","","","","","",""
"null","audio/beep-329314.mp3","null","audio-keyboard-response","76","2.1.0","443993","F=YES, J=NO","zs0kkpad0w","0","53","85","20","","","","","","","","","","","","","","","",""
"null","audio/survey1.wav","null","audio-keyboard-response","77","2.1.0","444832","F=YES, J=NO","zs0kkpad0w","0","53","85","20","","","","","","","","","","","","","","","",""
"538","
          <p id=""word"" style=""font-size: 40px;"">imploth</p>
          <p style=""font-size: 16px;"">F = YES &nbsp;&nbsp;&nbsp; J = NO</p>
        ","f","html-keyboard-response","78","2.1.0","445371","F=YES, J=NO","zs0kkpad0w","0","53","85","20","","","","","","","","","imploth","survey1","pseudoword","pseudoword","j","false","",""
"null","<p style=""font-size: 50px;"">+</p>","null","html-keyboard-response","79","2.1.0","445686","F=YES, J=NO","zs0kkpad0w","0","53","85","20","","","","","","","","","","","","","","","",""
"null","audio/beep-329314.mp3","null","audio-keyboard-response","80","2.1.0","447212","F=YES, J=NO","zs0kkpad0w","0","53","85","20","","","","","","","","","","","","","","","",""
"null","audio/cancer1.wav","null","audio-keyboard-response","81","2.1.0","447852","F=YES, J=NO","zs0kkpad0w","0","53","85","20","","","","","","","","","","","","","","","",""
"438","
          <p id=""word"" style=""font-size: 40px;"">draw</p>
          <p style=""font-size: 16px;"">F = YES &nbsp;&nbsp;&nbsp; J = NO</p>
        ","f","html-keyboard-response","82","2.1.0","448291","F=YES, J=NO","zs0kkpad0w","0","53","85","20","","","","","","","","","draw","cancer1","filler","filler","f","true","",""
"null","<p style=""font-size: 50px;"">+</p>","null","html-keyboard-response","83","2.1.0","448602","F=YES, J=NO","zs0kkpad0w","0","53","85","20","","","","","","","","","","","","","","","",""
"null","audio/beep-329314.mp3","null","audio-keyboard-response","84","2.1.0","450132","F=YES, J=NO","zs0kkpad0w","0","53","85","20","","","","","","","","","","","","","","","",""
"null","audio/novel.wav","null","audio-keyboard-response","85","2.1.0","450612","F=YES, J=NO","zs0kkpad0w","0","53","85","20","","","","","","","","","","","","","","","",""
"1494","
          <p id=""word"" style=""font-size: 40px;"">type</p>
          <p style=""font-size: 16px;"">F = YES &nbsp;&nbsp;&nbsp; J = NO</p>
        ","f","html-keyboard-response","86","2.1.0","452107","F=YES, J=NO","zs0kkpad0w","0","53","85","20","","","","","","","","","type","novel","filler","filler","f","true","",""
"null","<p style=""font-size: 50px;"">+</p>","null","html-keyboard-response","87","2.1.0","452419","F=YES, J=NO","zs0kkpad0w","0","53","85","20","","","","","","","","","","","","","","","",""
"null","audio/beep-329314.mp3","null","audio-keyboard-response","88","2.1.0","453952","F=YES, J=NO","zs0kkpad0w","0","53","85","20","","","","","","","","","","","","","","","",""
"null","audio/bridge.wav","null","audio-keyboard-response","89","2.1.0","454632","F=YES, J=NO","zs0kkpad0w","0","53","85","20","","","","","","","","","","","","","","","",""
"1066","
          <p id=""word"" style=""font-size: 40px;"">crack</p>
          <p style=""font-size: 16px;"">F = YES &nbsp;&nbsp;&nbsp; J = NO</p>
        ","f","html-keyboard-response","90","2.1.0","455699","F=YES, J=NO","zs0kkpad0w","0","53","85","20","","","","","","","","","crack","bridge","filler","filler","f","true","",""
"null","<p style=""font-size: 50px;"">+</p>","null","html-keyboard-response","91","2.1.0","456012","F=YES, J=NO","zs0kkpad0w","0","53","85","20","","","","","","","","","","","","","","","",""
"null","audio/beep-329314.mp3","null","audio-keyboard-response","92","2.1.0","457551","F=YES, J=NO","zs0kkpad0w","0","53","85","20","","","","","","","","","","","","","","","",""
"null","audio/menu.wav","null","audio-keyboard-response","93","2.1.0","458391","F=YES, J=NO","zs0kkpad0w","0","53","85","20","","","","","","","","","","","","","","","",""
"834","
          <p id=""word"" style=""font-size: 40px;"">slice</p>
          <p style=""font-size: 16px;"">F = YES &nbsp;&nbsp;&nbsp; J = NO</p>
        ","f","html-keyboard-response","94","2.1.0","459226","F=YES, J=NO","zs0kkpad0w","0","53","85","20","","","","","","","","","slice","menu","filler","filler","f","true","",""
"null","<p style=""font-size: 50px;"">+</p>","null","html-keyboard-response","95","2.1.0","459535","F=YES, J=NO","zs0kkpad0w","0","53","85","20","","","","","","","","","","","","","","","",""
"null","audio/beep-329314.mp3","null","audio-keyboard-response","96","2.1.0","461071","F=YES, J=NO","zs0kkpad0w","0","53","85","20","","","","","","","","","","","","","","","",""
"null","audio/weight1.wav","null","audio-keyboard-response","97","2.1.0","461731","F=YES, J=NO","zs0kkpad0w","0","53","85","20","","","","","","","","","","","","","","","",""
"1302","
          <p id=""word"" style=""font-size: 40px;"">crimsh</p>
          <p style=""font-size: 16px;"">F = YES &nbsp;&nbsp;&nbsp; J = NO</p>
        ","j","html-keyboard-response","98","2.1.0","463034","F=YES, J=NO","zs0kkpad0w","0","53","85","20","","","","","","","","","crimsh","weight1","pseudoword","pseudoword","j","true","",""
"null","<p style=""font-size: 50px;"">+</p>","null","html-keyboard-response","99","2.1.0","463345","F=YES, J=NO","zs0kkpad0w","0","53","85","20","","","","","","","","","","","","","","","",""
"null","audio/beep-329314.mp3","null","audio-keyboard-response","100","2.1.0","464871","F=YES, J=NO","zs0kkpad0w","0","53","85","20","","","","","","","","","","","","","","","",""
"null","audio/account1.wav","null","audio-keyboard-response","101","2.1.0","465551","F=YES, J=NO","zs0kkpad0w","0","53","85","20","","","","","","","","","","","","","","","",""
"650","
          <p id=""word"" style=""font-size: 40px;"">paint</p>
          <p style=""font-size: 16px;"">F = YES &nbsp;&nbsp;&nbsp; J = NO</p>
        ","f","html-keyboard-response","102","2.1.0","466202","F=YES, J=NO","zs0kkpad0w","0","53","85","20","","","","","","","","","paint","account1","filler","filler","f","true","",""
"null","<p style=""font-size: 50px;"">+</p>","null","html-keyboard-response","103","2.1.0","466511","F=YES, J=NO","zs0kkpad0w","0","53","85","20","","","","","","","","","","","","","","","",""
"null","audio/beep-329314.mp3","null","audio-keyboard-response","104","2.1.0","468051","F=YES, J=NO","zs0kkpad0w","0","53","85","20","","","","","","","","","","","","","","","",""
"null","audio/strength.wav","null","audio-keyboard-response","105","2.1.0","468891","F=YES, J=NO","zs0kkpad0w","0","53","85","20","","","","","","","","","","","","","","","",""
"934","
          <p id=""word"" style=""font-size: 40px;"">plabet</p>
          <p style=""font-size: 16px;"">F = YES &nbsp;&nbsp;&nbsp; J = NO</p>
        ","j","html-keyboard-response","106","2.1.0","469826","F=YES, J=NO","zs0kkpad0w","0","53","85","20","","","","","","","","","plabet","strength","pseudoword","pseudoword","j","true","",""
"null","<p style=""font-size: 50px;"">+</p>","null","html-keyboard-response","107","2.1.0","470134","F=YES, J=NO","zs0kkpad0w","0","53","85","20","","","","","","","","","","","","","","","",""
"null","audio/beep-329314.mp3","null","audio-keyboard-response","108","2.1.0","471672","F=YES, J=NO","zs0kkpad0w","0","53","85","20","","","","","","","","","","","","","","","",""
"null","audio/ankle1.wav","null","audio-keyboard-response","109","2.1.0","472331","F=YES, J=NO","zs0kkpad0w","0","53","85","20","","","","","","","","","","","","","","","",""
"934","
          <p id=""word"" style=""font-size: 40px;"">switm</p>
          <p style=""font-size: 16px;"">F = YES &nbsp;&nbsp;&nbsp; J = NO</p>
        ","j","html-keyboard-response","110","2.1.0","473266","F=YES, J=NO","zs0kkpad0w","0","53","85","20","","","","","","","","","switm","ankle1","pseudoword","pseudoword","j","true","",""
"null","<p style=""font-size: 50px;"">+</p>","null","html-keyboard-response","111","2.1.0","473577","F=YES, J=NO","zs0kkpad0w","0","53","85","20","","","","","","","","","","","","","","","",""
"null","audio/beep-329314.mp3","null","audio-keyboard-response","112","2.1.0","475111","F=YES, J=NO","zs0kkpad0w","0","53","85","20","","","","","","","","","","","","","","","",""
"null","audio/van1.wav","null","audio-keyboard-response","113","2.1.0","475671","F=YES, J=NO","zs0kkpad0w","0","53","85","20","","","","","","","","","","","","","","","",""
"1002","
          <p id=""word"" style=""font-size: 40px;"">push</p>
          <p style=""font-size: 16px;"">F = YES &nbsp;&nbsp;&nbsp; J = NO</p>
        ","f","html-keyboard-response","114","2.1.0","476674","F=YES, J=NO","zs0kkpad0w","0","53","85","20","","","","","","","","","push","van1","filler","filler","f","true","",""
"2087","<p>Starting practice block 2 of 2. Press any key to continue.</p>"," ","html-keyboard-response","115","2.1.0","478762","F=YES, J=NO","zs0kkpad0w","0","53","85","20","","","","","","","","","","","","","","","",""
"null","<p style=""font-size: 50px;"">+</p>","null","html-keyboard-response","116","2.1.0","479072","F=YES, J=NO","zs0kkpad0w","0","53","85","20","","","","","","","","","","","","","","","",""
"null","audio/beep-329314.mp3","null","audio-keyboard-response","117","2.1.0","480611","F=YES, J=NO","zs0kkpad0w","0","53","85","20","","","","","","","","","","","","","","","",""
"null","audio/kettle1.wav","null","audio-keyboard-response","118","2.1.0","481071","F=YES, J=NO","zs0kkpad0w","0","53","85","20","","","","","","","","","","","","","","","",""
"786","
          <p id=""word"" style=""font-size: 40px;"">wrap</p>
          <p style=""font-size: 16px;"">F = YES &nbsp;&nbsp;&nbsp; J = NO</p>
        ","f","html-keyboard-response","119","2.1.0","481858","F=YES, J=NO","zs0kkpad0w","0","53","85","20","","","","","","","","","wrap","kettle1","filler","filler","f","true","",""
"null","<p style=""font-size: 50px;"">+</p>","null","html-keyboard-response","120","2.1.0","482169","F=YES, J=NO","zs0kkpad0w","0","53","85","20","","","","","","","","","","","","","","","",""
"null","audio/beep-329314.mp3","null","audio-keyboard-response","121","2.1.0","483691","F=YES, J=NO","zs0kkpad0w","0","53","85","20","","","","","","","","","","","","","","","",""
"null","audio/birth1.wav","null","audio-keyboard-response","122","2.1.0","484231","F=YES, J=NO","zs0kkpad0w","0","53","85","20","","","","","","","","","","","","","","","",""
"809","
          <p id=""word"" style=""font-size: 40px;"">peel</p>
          <p style=""font-size: 16px;"">F = YES &nbsp;&nbsp;&nbsp; J = NO</p>
        ","f","html-keyboard-response","123","2.1.0","485042","F=YES, J=NO","zs0kkpad0w","0","53","85","20","","","","","","","","","peel","birth1","filler","filler","f","true","",""
"null","<p style=""font-size: 50px;"">+</p>","null","html-keyboard-response","124","2.1.0","485352","F=YES, J=NO","zs0kkpad0w","0","53","85","20","","","","","","","","","","","","","","","",""
"null","audio/beep-329314.mp3","null","audio-keyboard-response","125","2.1.0","486891","F=YES, J=NO","zs0kkpad0w","0","53","85","20","","","","","","","","","","","","","","","",""
"null","audio/test1.wav","null","audio-keyboard-response","126","2.1.0","487531","F=YES, J=NO","zs0kkpad0w","0","53","85","20","","","","","","","","","","","","","","","",""
"845","
          <p id=""word"" style=""font-size: 40px;"">twopch</p>
          <p style=""font-size: 16px;"">F = YES &nbsp;&nbsp;&nbsp; J = NO</p>
        ","j","html-keyboard-response","127","2.1.0","488378","F=YES, J=NO","zs0kkpad0w","0","53","85","20","","","","","","","","","twopch","test1","pseudoword","pseudoword","j","true","",""
"null","<p style=""font-size: 50px;"">+</p>","null","html-keyboard-response","128","2.1.0","488688","F=YES, J=NO","zs0kkpad0w","0","53","85","20","","","","","","","","","","","","","","","",""
"null","audio/beep-329314.mp3","null","audio-keyboard-response","129","2.1.0","490211","F=YES, J=NO","zs0kkpad0w","0","53","85","20","","","","","","","","","","","","","","","",""
"null","audio/terrain.wav","null","audio-keyboard-response","130","2.1.0","490951","F=YES, J=NO","zs0kkpad0w","0","53","85","20","","","","","","","","","","","","","","","",""
"642","
          <p id=""word"" style=""font-size: 40px;"">twist</p>
          <p style=""font-size: 16px;"">F = YES &nbsp;&nbsp;&nbsp; J = NO</p>
        ","f","html-keyboard-response","131","2.1.0","491594","F=YES, J=NO","zs0kkpad0w","0","53","85","20","","","","","","","","","twist","terrain","filler","filler","f","true","",""
"null","<p style=""font-size: 50px;"">+</p>","null","html-keyboard-response","132","2.1.0","491896","F=YES, J=NO","zs0kkpad0w","0","53","85","20","","","","","","","","","","","","","","","",""
"null","audio/beep-329314.mp3","null","audio-keyboard-response","133","2.1.0","493431","F=YES, J=NO","zs0kkpad0w","0","53","85","20","","","","","","","","","","","","","","","",""
"null","audio/neck.wav","null","audio-keyboard-response","134","2.1.0","494131","F=YES, J=NO","zs0kkpad0w","0","53","85","20","","","","","","","","","","","","","","","",""
"909","
          <p id=""word"" style=""font-size: 40px;"">werling</p>
          <p style=""font-size: 16px;"">F = YES &nbsp;&nbsp;&nbsp; J = NO</p>
        ","j","html-keyboard-response","135","2.1.0","495042","F=YES, J=NO","zs0kkpad0w","0","53","85","20","","","","","","","","","werling","neck","pseudoword","pseudoword","j","true","",""
"null","<p style=""font-size: 50px;"">+</p>","null","html-keyboard-response","136","2.1.0","495351","F=YES, J=NO","zs0kkpad0w","0","53","85","20","","","","","","","","","","","","","","","",""
"null","audio/beep-329314.mp3","null","audio-keyboard-response","137","2.1.0","496891","F=YES, J=NO","zs0kkpad0w","0","53","85","20","","","","","","","","","","","","","","","",""
"null","audio/beach1.wav","null","audio-keyboard-response","138","2.1.0","497631","F=YES, J=NO","zs0kkpad0w","0","53","85","20","","","","","","","","","","","","","","","",""
"570","
          <p id=""word"" style=""font-size: 40px;"">drive</p>
          <p style=""font-size: 16px;"">F = YES &nbsp;&nbsp;&nbsp; J = NO</p>
        ","f","html-keyboard-response","139","2.1.0","498202","F=YES, J=NO","zs0kkpad0w","0","53","85","20","","","","","","","","","drive","beach1","filler","filler","f","true","",""
"null","<p style=""font-size: 50px;"">+</p>","null","html-keyboard-response","140","2.1.0","498510","F=YES, J=NO","zs0kkpad0w","0","53","85","20","","","","","","","","","","","","","","","",""
"null","audio/beep-329314.mp3","null","audio-keyboard-response","141","2.1.0","500051","F=YES, J=NO","zs0kkpad0w","0","53","85","20","","","","","","","","","","","","","","","",""
"null","audio/budget1.wav","null","audio-keyboard-response","142","2.1.0","500810","F=YES, J=NO","zs0kkpad0w","0","53","85","20","","","","","","","","","","","","","","","",""
"774","
          <p id=""word"" style=""font-size: 40px;"">sulist</p>
          <p style=""font-size: 16px;"">F = YES &nbsp;&nbsp;&nbsp; J = NO</p>
        ","j","html-keyboard-response","143","2.1.0","501586","F=YES, J=NO","zs0kkpad0w","0","53","85","20","","","","","","","","","sulist","budget1","pseudoword","pseudoword","j","true","",""
"null","<p style=""font-size: 50px;"">+</p>","null","html-keyboard-response","144","2.1.0","501896","F=YES, J=NO","zs0kkpad0w","0","53","85","20","","","","","","","","","","","","","","","",""
"null","audio/beep-329314.mp3","null","audio-keyboard-response","145","2.1.0","503430","F=YES, J=NO","zs0kkpad0w","0","53","85","20","","","","","","","","","","","","","","","",""
"null","audio/voice.wav","null","audio-keyboard-response","146","2.1.0","504091","F=YES, J=NO","zs0kkpad0w","0","53","85","20","","","","","","","","","","","","","","","",""
"1046","
          <p id=""word"" style=""font-size: 40px;"">grintle</p>
          <p style=""font-size: 16px;"">F = YES &nbsp;&nbsp;&nbsp; J = NO</p>
        ","j","html-keyboard-response","147","2.1.0","505137","F=YES, J=NO","zs0kkpad0w","0","53","85","20","","","","","","","","","grintle","voice","pseudoword","pseudoword","j","true","",""
"null","<p style=""font-size: 50px;"">+</p>","null","html-keyboard-response","148","2.1.0","505448","F=YES, J=NO","zs0kkpad0w","0","53","85","20","","","","","","","","","","","","","","","",""
"null","audio/beep-329314.mp3","null","audio-keyboard-response","149","2.1.0","506971","F=YES, J=NO","zs0kkpad0w","0","53","85","20","","","","","","","","","","","","","","","",""
"null","audio/alarm1.wav","null","audio-keyboard-response","150","2.1.0","507591","F=YES, J=NO","zs0kkpad0w","0","53","85","20","","","","","","","","","","","","","","","",""
"642","
          <p id=""word"" style=""font-size: 40px;"">lock</p>
          <p style=""font-size: 16px;"">F = YES &nbsp;&nbsp;&nbsp; J = NO</p>
        ","f","html-keyboard-response","151","2.1.0","508234","F=YES, J=NO","zs0kkpad0w","0","53","85","20","","","","","","","","","lock","alarm1","filler","filler","f","true","",""
"null","<p style=""font-size: 50px;"">+</p>","null","html-keyboard-response","152","2.1.0","508542","F=YES, J=NO","zs0kkpad0w","0","53","85","20","","","","","","","","","","","","","","","",""
"null","audio/beep-329314.mp3","null","audio-keyboard-response","153","2.1.0","510071","F=YES, J=NO","zs0kkpad0w","0","53","85","20","","","","","","","","","","","","","","","",""
"null","audio/key1.wav","null","audio-keyboard-response","154","2.1.0","510431","F=YES, J=NO","zs0kkpad0w","0","53","85","20","","","","","","","","","","","","","","","",""
"945","
          <p id=""word"" style=""font-size: 40px;"">sminsh</p>
          <p style=""font-size: 16px;"">F = YES &nbsp;&nbsp;&nbsp; J = NO</p>
        ","j","html-keyboard-response","155","2.1.0","511377","F=YES, J=NO","zs0kkpad0w","0","53","85","20","","","","","","","","","sminsh","key1","pseudoword","pseudoword","j","true","",""
"null","<p style=""font-size: 50px;"">+</p>","null","html-keyboard-response","156","2.1.0","511693","F=YES, J=NO","zs0kkpad0w","0","53","85","20","","","","","","","","","","","","","","","",""
"null","audio/beep-329314.mp3","null","audio-keyboard-response","157","2.1.0","513230","F=YES, J=NO","zs0kkpad0w","0","53","85","20","","","","","","","","","","","","","","","",""
"null","audio/butter1.wav","null","audio-keyboard-response","158","2.1.0","513730","F=YES, J=NO","zs0kkpad0w","0","53","85","20","","","","","","","","","","","","","","","",""
"734","
          <p id=""word"" style=""font-size: 40px;"">chew</p>
          <p style=""font-size: 16px;"">F = YES &nbsp;&nbsp;&nbsp; J = NO</p>
        ","f","html-keyboard-response","159","2.1.0","514465","F=YES, J=NO","zs0kkpad0w","0","53","85","20","","","","","","","","","chew","butter1","filler","filler","f","true","",""
"null","<p style=""font-size: 50px;"">+</p>","null","html-keyboard-response","160","2.1.0","514770","F=YES, J=NO","zs0kkpad0w","0","53","85","20","","","","","","","","","","","","","","","",""
"null","audio/beep-329314.mp3","null","audio-keyboard-response","161","2.1.0","516311","F=YES, J=NO","zs0kkpad0w","0","53","85","20","","","","","","","","","","","","","","","",""
"null","audio/bush1.wav","null","audio-keyboard-response","162","2.1.0","516810","F=YES, J=NO","zs0kkpad0w","0","53","85","20","","","","","","","","","","","","","","","",""
"1086","
          <p id=""word"" style=""font-size: 40px;"">platined</p>
          <p style=""font-size: 16px;"">F = YES &nbsp;&nbsp;&nbsp; J = NO</p>
        ","f","html-keyboard-response","163","2.1.0","517897","F=YES, J=NO","zs0kkpad0w","0","53","85","20","","","","","","","","","platined","bush1","pseudoword","pseudoword","j","false","",""
"4183","
    <div style=""max-width: 800px; margin: auto; text-align: left;"">
      <h2>Part 2: Main Trials</h2>
      <p>Great job on the practice trials!</p>
      <p>You will now begin the <strong>main set of trials</strong>.</p>
      <p>Remember your key assignments:</p>
      <ul>
        <li><strong>F</strong> = YES (real English word)</li>
        <li><strong>J</strong> = NO (not a real English word)</li>
      </ul>
      <p>Try to respond as <strong>quickly and accurately</strong> as possible.</p>
      <p style=""margin-top: 2em;"">Press any key to begin the main trials.</p>
    </div>
  "," ","html-keyboard-response","164","2.1.0","522081","F=YES, J=NO","zs0kkpad0w","0","53","85","20","","","","","","","","","","","","","","","",""
"4391","<p>Starting main block 1 of 8. Press any key to continue.</p>"," ","html-keyboard-response","165","2.1.0","526473","F=YES, J=NO","zs0kkpad0w","0","53","85","20","","","","","","","","","","","","","","","",""
"null","<p style=""font-size: 50px;"">+</p>","null","html-keyboard-response","166","2.1.0","526789","F=YES, J=NO","zs0kkpad0w","0","53","85","20","","","","","","","","","","","","","","","",""
"null","audio/beep-329314.mp3","null","audio-keyboard-response","167","2.1.0","528300","F=YES, J=NO","zs0kkpad0w","0","53","85","20","","","","","","","","","","","","","","","",""
"null","audio/dome.wav","null","audio-keyboard-response","168","2.1.0","528690","F=YES, J=NO","zs0kkpad0w","0","53","85","20","","","","","","","","","","","","","","","",""
"702","
          <p id=""word"" style=""font-size: 40px;"">feed</p>
          <p style=""font-size: 16px;"">F = YES &nbsp;&nbsp;&nbsp; J = NO</p>
        ","f","html-keyboard-response","169","2.1.0","529393","F=YES, J=NO","zs0kkpad0w","0","53","85","20","","","","","","","","","feed","dome","unrelated","experimental","f","true","",""
"null","<p style=""font-size: 50px;"">+</p>","null","html-keyboard-response","170","2.1.0","529706","F=YES, J=NO","zs0kkpad0w","0","53","85","20","","","","","","","","","","","","","","","",""
"null","audio/beep-329314.mp3","null","audio-keyboard-response","171","2.1.0","531239","F=YES, J=NO","zs0kkpad0w","0","53","85","20","","","","","","","","","","","","","","","",""
"null","audio/foe1.wav","null","audio-keyboard-response","172","2.1.0","531790","F=YES, J=NO","zs0kkpad0w","0","53","85","20","","","","","","","","","","","","","","","",""
"770","
          <p id=""word"" style=""font-size: 40px;"">creth</p>
          <p style=""font-size: 16px;"">F = YES &nbsp;&nbsp;&nbsp; J = NO</p>
        ","j","html-keyboard-response","173","2.1.0","532561","F=YES, J=NO","zs0kkpad0w","0","53","85","20","","","","","","","","","creth","foe1","pseudoword","pseudoword","j","true","",""
"null","<p style=""font-size: 50px;"">+</p>","null","html-keyboard-response","174","2.1.0","532872","F=YES, J=NO","zs0kkpad0w","0","53","85","20","","","","","","","","","","","","","","","",""
"null","audio/beep-329314.mp3","null","audio-keyboard-response","175","2.1.0","534399","F=YES, J=NO","zs0kkpad0w","0","53","85","20","","","","","","","","","","","","","","","",""
"null","audio/heart1.wav","null","audio-keyboard-response","176","2.1.0","535170","F=YES, J=NO","zs0kkpad0w","0","53","85","20","","","","","","","","","","","","","","","",""
"805","
          <p id=""word"" style=""font-size: 40px;"">dralm</p>
          <p style=""font-size: 16px;"">F = YES &nbsp;&nbsp;&nbsp; J = NO</p>
        ","j","html-keyboard-response","177","2.1.0","535977","F=YES, J=NO","zs0kkpad0w","0","53","85","20","","","","","","","","","dralm","heart1","pseudoword","pseudoword","j","true","",""
"null","<p style=""font-size: 50px;"">+</p>","null","html-keyboard-response","178","2.1.0","536289","F=YES, J=NO","zs0kkpad0w","0","53","85","20","","","","","","","","","","","","","","","",""
"null","audio/beep-329314.mp3","null","audio-keyboard-response","179","2.1.0","537820","F=YES, J=NO","zs0kkpad0w","0","53","85","20","","","","","","","","","","","","","","","",""
"null","audio/cave1.wav","null","audio-keyboard-response","180","2.1.0","538389","F=YES, J=NO","zs0kkpad0w","0","53","85","20","","","","","","","","","","","","","","","",""
"618","
          <p id=""word"" style=""font-size: 40px;"">blacket</p>
          <p style=""font-size: 16px;"">F = YES &nbsp;&nbsp;&nbsp; J = NO</p>
        ","f","html-keyboard-response","181","2.1.0","539008","F=YES, J=NO","zs0kkpad0w","0","53","85","20","","","","","","","","","blacket","cave1","pseudoword","pseudoword","j","false","",""
"null","<p style=""font-size: 50px;"">+</p>","null","html-keyboard-response","182","2.1.0","539322","F=YES, J=NO","zs0kkpad0w","0","53","85","20","","","","","","","","","","","","","","","",""
"null","audio/beep-329314.mp3","null","audio-keyboard-response","183","2.1.0","540860","F=YES, J=NO","zs0kkpad0w","0","53","85","20","","","","","","","","","","","","","","","",""
"null","audio/mind.wav","null","audio-keyboard-response","184","2.1.0","541590","F=YES, J=NO","zs0kkpad0w","0","53","85","20","","","","","","","","","","","","","","","",""
"937","
          <p id=""word"" style=""font-size: 40px;"">crainate</p>
          <p style=""font-size: 16px;"">F = YES &nbsp;&nbsp;&nbsp; J = NO</p>
        ","j","html-keyboard-response","185","2.1.0","542528","F=YES, J=NO","zs0kkpad0w","0","53","85","20","","","","","","","","","crainate","mind","pseudoword","pseudoword","j","true","",""
"null","<p style=""font-size: 50px;"">+</p>","null","html-keyboard-response","186","2.1.0","542839","F=YES, J=NO","zs0kkpad0w","0","53","85","20","","","","","","","","","","","","","","","",""
"null","audio/beep-329314.mp3","null","audio-keyboard-response","187","2.1.0","544379","F=YES, J=NO","zs0kkpad0w","0","53","85","20","","","","","","","","","","","","","","","",""
"null","audio/mouth1.wav","null","audio-keyboard-response","188","2.1.0","544970","F=YES, J=NO","zs0kkpad0w","0","53","85","20","","","","","","","","","","","","","","","",""
"765","
          <p id=""word"" style=""font-size: 40px;"">spolial</p>
          <p style=""font-size: 16px;"">F = YES &nbsp;&nbsp;&nbsp; J = NO</p>
        ","j","html-keyboard-response","189","2.1.0","545736","F=YES, J=NO","zs0kkpad0w","0","53","85","20","","","","","","","","","spolial","mouth1","pseudoword","pseudoword","j","true","",""
"null","<p style=""font-size: 50px;"">+</p>","null","html-keyboard-response","190","2.1.0","546055","F=YES, J=NO","zs0kkpad0w","0","53","85","20","","","","","","","","","","","","","","","",""
"null","audio/beep-329314.mp3","null","audio-keyboard-response","191","2.1.0","547580","F=YES, J=NO","zs0kkpad0w","0","53","85","20","","","","","","","","","","","","","","","",""
"null","audio/tax1.wav","null","audio-keyboard-response","192","2.1.0","548309","F=YES, J=NO","zs0kkpad0w","0","53","85","20","","","","","","","","","","","","","","","",""
"818","
          <p id=""word"" style=""font-size: 40px;"">snate</p>
          <p style=""font-size: 16px;"">F = YES &nbsp;&nbsp;&nbsp; J = NO</p>
        ","j","html-keyboard-response","193","2.1.0","549128","F=YES, J=NO","zs0kkpad0w","0","53","85","20","","","","","","","","","snate","tax1","pseudoword","pseudoword","j","true","",""
"null","<p style=""font-size: 50px;"">+</p>","null","html-keyboard-response","194","2.1.0","549444","F=YES, J=NO","zs0kkpad0w","0","53","85","20","","","","","","","","","","","","","","","",""
"null","audio/beep-329314.mp3","null","audio-keyboard-response","195","2.1.0","550979","F=YES, J=NO","zs0kkpad0w","0","53","85","20","","","","","","","","","","","","","","","",""
"null","audio/foot1.wav","null","audio-keyboard-response","196","2.1.0","551650","F=YES, J=NO","zs0kkpad0w","0","53","85","20","","","","","","","","","","","","","","","",""
"1382","
          <p id=""word"" style=""font-size: 40px;"">thrutt</p>
          <p style=""font-size: 16px;"">F = YES &nbsp;&nbsp;&nbsp; J = NO</p>
        ","j","html-keyboard-response","197","2.1.0","553032","F=YES, J=NO","zs0kkpad0w","0","53","85","20","","","","","","","","","thrutt","foot1","pseudoword","pseudoword","j","true","",""
"null","<p style=""font-size: 50px;"">+</p>","null","html-keyboard-response","198","2.1.0","553345","F=YES, J=NO","zs0kkpad0w","0","53","85","20","","","","","","","","","","","","","","","",""
"null","audio/beep-329314.mp3","null","audio-keyboard-response","199","2.1.0","554880","F=YES, J=NO","zs0kkpad0w","0","53","85","20","","","","","","","","","","","","","","","",""
"null","audio/alarm1.wav","null","audio-keyboard-response","200","2.1.0","555449","F=YES, J=NO","zs0kkpad0w","0","53","85","20","","","","","","","","","","","","","","","",""
"1254","
          <p id=""word"" style=""font-size: 40px;"">swetp</p>
          <p style=""font-size: 16px;"">F = YES &nbsp;&nbsp;&nbsp; J = NO</p>
        ","j","html-keyboard-response","201","2.1.0","556704","F=YES, J=NO","zs0kkpad0w","0","53","85","20","","","","","","","","","swetp","alarm1","pseudoword","pseudoword","j","true","",""
"null","<p style=""font-size: 50px;"">+</p>","null","html-keyboard-response","202","2.1.0","557021","F=YES, J=NO","zs0kkpad0w","0","53","85","20","","","","","","","","","","","","","","","",""
"null","audio/beep-329314.mp3","null","audio-keyboard-response","203","2.1.0","558560","F=YES, J=NO","zs0kkpad0w","0","53","85","20","","","","","","","","","","","","","","","",""
"null","audio/burden.wav","null","audio-keyboard-response","204","2.1.0","559189","F=YES, J=NO","zs0kkpad0w","0","53","85","20","","","","","","","","","","","","","","","",""
"1154","
          <p id=""word"" style=""font-size: 40px;"">whotth</p>
          <p style=""font-size: 16px;"">F = YES &nbsp;&nbsp;&nbsp; J = NO</p>
        ","j","html-keyboard-response","205","2.1.0","560344","F=YES, J=NO","zs0kkpad0w","0","53","85","20","","","","","","","","","whotth","burden","pseudoword","pseudoword","j","true","",""
"null","<p style=""font-size: 50px;"">+</p>","null","html-keyboard-response","206","2.1.0","560660","F=YES, J=NO","zs0kkpad0w","0","53","85","20","","","","","","","","","","","","","","","",""
"null","audio/beep-329314.mp3","null","audio-keyboard-response","207","2.1.0","562200","F=YES, J=NO","zs0kkpad0w","0","53","85","20","","","","","","","","","","","","","","","",""
"null","audio/battle1.wav","null","audio-keyboard-response","208","2.1.0","562810","F=YES, J=NO","zs0kkpad0w","0","53","85","20","","","","","","","","","","","","","","","",""
"789","
          <p id=""word"" style=""font-size: 40px;"">fight</p>
          <p style=""font-size: 16px;"">F = YES &nbsp;&nbsp;&nbsp; J = NO</p>
        ","f","html-keyboard-response","209","2.1.0","563600","F=YES, J=NO","zs0kkpad0w","0","53","85","20","","","","","","","","","fight","battle1","literal","experimental","f","true","",""
"null","<p style=""font-size: 50px;"">+</p>","null","html-keyboard-response","210","2.1.0","563910","F=YES, J=NO","zs0kkpad0w","0","53","85","20","","","","","","","","","","","","","","","",""
"null","audio/beep-329314.mp3","null","audio-keyboard-response","211","2.1.0","565440","F=YES, J=NO","zs0kkpad0w","0","53","85","20","","","","","","","","","","","","","","","",""
"null","audio/scar.wav","null","audio-keyboard-response","212","2.1.0","566169","F=YES, J=NO","zs0kkpad0w","0","53","85","20","","","","","","","","","","","","","","","",""
"1198","
          <p id=""word"" style=""font-size: 40px;"">adelineate</p>
          <p style=""font-size: 16px;"">F = YES &nbsp;&nbsp;&nbsp; J = NO</p>
        ","j","html-keyboard-response","213","2.1.0","567368","F=YES, J=NO","zs0kkpad0w","0","53","85","20","","","","","","","","","adelineate","scar","pseudoword","pseudoword","j","true","",""
"null","<p style=""font-size: 50px;"">+</p>","null","html-keyboard-response","214","2.1.0","567686","F=YES, J=NO","zs0kkpad0w","0","53","85","20","","","","","","","","","","","","","","","",""
"null","audio/beep-329314.mp3","null","audio-keyboard-response","215","2.1.0","569219","F=YES, J=NO","zs0kkpad0w","0","53","85","20","","","","","","","","","","","","","","","",""
"null","audio/belief.wav","null","audio-keyboard-response","216","2.1.0","569869","F=YES, J=NO","zs0kkpad0w","0","53","85","20","","","","","","","","","","","","","","","",""
"554","
          <p id=""word"" style=""font-size: 40px;"">read</p>
          <p style=""font-size: 16px;"">F = YES &nbsp;&nbsp;&nbsp; J = NO</p>
        ","f","html-keyboard-response","217","2.1.0","570424","F=YES, J=NO","zs0kkpad0w","0","53","85","20","","","","","","","","","read","belief","filler","filler","f","true","",""
"null","<p style=""font-size: 50px;"">+</p>","null","html-keyboard-response","218","2.1.0","570726","F=YES, J=NO","zs0kkpad0w","0","53","85","20","","","","","","","","","","","","","","","",""
"null","audio/beep-329314.mp3","null","audio-keyboard-response","219","2.1.0","572259","F=YES, J=NO","zs0kkpad0w","0","53","85","20","","","","","","","","","","","","","","","",""
"null","audio/dollar.wav","null","audio-keyboard-response","220","2.1.0","572609","F=YES, J=NO","zs0kkpad0w","0","53","85","20","","","","","","","","","","","","","","","",""
"894","
          <p id=""word"" style=""font-size: 40px;"">gliptism</p>
          <p style=""font-size: 16px;"">F = YES &nbsp;&nbsp;&nbsp; J = NO</p>
        ","j","html-keyboard-response","221","2.1.0","573504","F=YES, J=NO","zs0kkpad0w","0","53","85","20","","","","","","","","","gliptism","dollar","pseudoword","pseudoword","j","true","",""
"null","<p style=""font-size: 50px;"">+</p>","null","html-keyboard-response","222","2.1.0","573809","F=YES, J=NO","zs0kkpad0w","0","53","85","20","","","","","","","","","","","","","","","",""
"null","audio/beep-329314.mp3","null","audio-keyboard-response","223","2.1.0","575339","F=YES, J=NO","zs0kkpad0w","0","53","85","20","","","","","","","","","","","","","","","",""
"null","audio/table1.wav","null","audio-keyboard-response","224","2.1.0","575969","F=YES, J=NO","zs0kkpad0w","0","53","85","20","","","","","","","","","","","","","","","",""
"566","
          <p id=""word"" style=""font-size: 40px;"">clear</p>
          <p style=""font-size: 16px;"">F = YES &nbsp;&nbsp;&nbsp; J = NO</p>
        ","f","html-keyboard-response","225","2.1.0","576536","F=YES, J=NO","zs0kkpad0w","0","53","85","20","","","","","","","","","clear","table1","literal","experimental","f","true","",""
"null","<p style=""font-size: 50px;"">+</p>","null","html-keyboard-response","226","2.1.0","576842","F=YES, J=NO","zs0kkpad0w","0","53","85","20","","","","","","","","","","","","","","","",""
"null","audio/beep-329314.mp3","null","audio-keyboard-response","227","2.1.0","578386","F=YES, J=NO","zs0kkpad0w","0","53","85","20","","","","","","","","","","","","","","","",""
"null","audio/ship.wav","null","audio-keyboard-response","228","2.1.0","578916","F=YES, J=NO","zs0kkpad0w","0","53","85","20","","","","","","","","","","","","","","","",""
"914","
          <p id=""word"" style=""font-size: 40px;"">scrap</p>
          <p style=""font-size: 16px;"">F = YES &nbsp;&nbsp;&nbsp; J = NO</p>
        ","f","html-keyboard-response","229","2.1.0","579831","F=YES, J=NO","zs0kkpad0w","0","53","85","20","","","","","","","","","scrap","ship","literal","experimental","f","true","",""
"1895","<p>Excellent! You have finished block 1 of 8.</p>
                     <p>Feel free to take a 30 second break.</p>
                     <p>Press any key when you're ready to continue.</p>"," ","html-keyboard-response","230","2.1.0","581727","F=YES, J=NO","zs0kkpad0w","0","53","85","20","","","","","","","","","","","","","","","",""
"1159","<p>Starting main block 2 of 8. Press any key to continue.</p>"," ","html-keyboard-response","231","2.1.0","582887","F=YES, J=NO","zs0kkpad0w","0","53","85","20","","","","","","","","","","","","","","","",""
"null","<p style=""font-size: 50px;"">+</p>","null","html-keyboard-response","232","2.1.0","583188","F=YES, J=NO","zs0kkpad0w","0","53","85","20","","","","","","","","","","","","","","","",""
"null","audio/beep-329314.mp3","null","audio-keyboard-response","233","2.1.0","584726","F=YES, J=NO","zs0kkpad0w","0","53","85","20","","","","","","","","","","","","","","","",""
"null","audio/birth1.wav","null","audio-keyboard-response","234","2.1.0","585236","F=YES, J=NO","zs0kkpad0w","0","53","85","20","","","","","","","","","","","","","","","",""
"641","
          <p id=""word"" style=""font-size: 40px;"">drop</p>
          <p style=""font-size: 16px;"">F = YES &nbsp;&nbsp;&nbsp; J = NO</p>
        ","f","html-keyboard-response","235","2.1.0","585879","F=YES, J=NO","zs0kkpad0w","0","53","85","20","","","","","","","","","drop","birth1","unrelated","experimental","f","true","",""
"null","<p style=""font-size: 50px;"">+</p>","null","html-keyboard-response","236","2.1.0","586181","F=YES, J=NO","zs0kkpad0w","0","53","85","20","","","","","","","","","","","","","","","",""
"null","audio/beep-329314.mp3","null","audio-keyboard-response","237","2.1.0","587706","F=YES, J=NO","zs0kkpad0w","0","53","85","20","","","","","","","","","","","","","","","",""
"null","audio/smirk1.wav","null","audio-keyboard-response","238","2.1.0","588556","F=YES, J=NO","zs0kkpad0w","0","53","85","20","","","","","","","","","","","","","","","",""
"1154","
          <p id=""word"" style=""font-size: 40px;"">snopt</p>
          <p style=""font-size: 16px;"">F = YES &nbsp;&nbsp;&nbsp; J = NO</p>
        ","f","html-keyboard-response","239","2.1.0","589711","F=YES, J=NO","zs0kkpad0w","0","53","85","20","","","","","","","","","snopt","smirk1","pseudoword","pseudoword","j","false","",""
"null","<p style=""font-size: 50px;"">+</p>","null","html-keyboard-response","240","2.1.0","590014","F=YES, J=NO","zs0kkpad0w","0","53","85","20","","","","","","","","","","","","","","","",""
"null","audio/beep-329314.mp3","null","audio-keyboard-response","241","2.1.0","591546","F=YES, J=NO","zs0kkpad0w","0","53","85","20","","","","","","","","","","","","","","","",""
"null","audio/life1.wav","null","audio-keyboard-response","242","2.1.0","592235","F=YES, J=NO","zs0kkpad0w","0","53","85","20","","","","","","","","","","","","","","","",""
"530","
          <p id=""word"" style=""font-size: 40px;"">give</p>
          <p style=""font-size: 16px;"">F = YES &nbsp;&nbsp;&nbsp; J = NO</p>
        ","f","html-keyboard-response","243","2.1.0","592767","F=YES, J=NO","zs0kkpad0w","0","53","85","20","","","","","","","","","give","life1","metaphor","experimental","f","true","",""
"null","<p style=""font-size: 50px;"">+</p>","null","html-keyboard-response","244","2.1.0","593071","F=YES, J=NO","zs0kkpad0w","0","53","85","20","","","","","","","","","","","","","","","",""
"null","audio/beep-329314.mp3","null","audio-keyboard-response","245","2.1.0","594606","F=YES, J=NO","zs0kkpad0w","0","53","85","20","","","","","","","","","","","","","","","",""
"null","audio/baby.wav","null","audio-keyboard-response","246","2.1.0","595236","F=YES, J=NO","zs0kkpad0w","0","53","85","20","","","","","","","","","","","","","","","",""
"490","
          <p id=""word"" style=""font-size: 40px;"">lift</p>
          <p style=""font-size: 16px;"">F = YES &nbsp;&nbsp;&nbsp; J = NO</p>
        ","f","html-keyboard-response","247","2.1.0","595727","F=YES, J=NO","zs0kkpad0w","0","53","85","20","","","","","","","","","lift","baby","filler","filler","f","true","",""
"null","<p style=""font-size: 50px;"">+</p>","null","html-keyboard-response","248","2.1.0","596030","F=YES, J=NO","zs0kkpad0w","0","53","85","20","","","","","","","","","","","","","","","",""
"null","audio/beep-329314.mp3","null","audio-keyboard-response","249","2.1.0","597566","F=YES, J=NO","zs0kkpad0w","0","53","85","20","","","","","","","","","","","","","","","",""
"null","audio/theory1.wav","null","audio-keyboard-response","250","2.1.0","598315","F=YES, J=NO","zs0kkpad0w","0","53","85","20","","","","","","","","","","","","","","","",""
"642","
          <p id=""word"" style=""font-size: 40px;"">construct</p>
          <p style=""font-size: 16px;"">F = YES &nbsp;&nbsp;&nbsp; J = NO</p>
        ","f","html-keyboard-response","251","2.1.0","598959","F=YES, J=NO","zs0kkpad0w","0","53","85","20","","","","","","","","","construct","theory1","metaphor","experimental","f","true","",""
"null","<p style=""font-size: 50px;"">+</p>","null","html-keyboard-response","252","2.1.0","599264","F=YES, J=NO","zs0kkpad0w","0","53","85","20","","","","","","","","","","","","","","","",""
"null","audio/beep-329314.mp3","null","audio-keyboard-response","253","2.1.0","600785","F=YES, J=NO","zs0kkpad0w","0","53","85","20","","","","","","","","","","","","","","","",""
"null","audio/grass.wav","null","audio-keyboard-response","254","2.1.0","601476","F=YES, J=NO","zs0kkpad0w","0","53","85","20","","","","","","","","","","","","","","","",""
"1138","
          <p id=""word"" style=""font-size: 40px;"">milames</p>
          <p style=""font-size: 16px;"">F = YES &nbsp;&nbsp;&nbsp; J = NO</p>
        ","f","html-keyboard-response","255","2.1.0","602614","F=YES, J=NO","zs0kkpad0w","0","53","85","20","","","","","","","","","milames","grass","pseudoword","pseudoword","j","false","",""
"null","<p style=""font-size: 50px;"">+</p>","null","html-keyboard-response","256","2.1.0","602921","F=YES, J=NO","zs0kkpad0w","0","53","85","20","","","","","","","","","","","","","","","",""
"null","audio/beep-329314.mp3","null","audio-keyboard-response","257","2.1.0","604446","F=YES, J=NO","zs0kkpad0w","0","53","85","20","","","","","","","","","","","","","","","",""
"null","audio/road.wav","null","audio-keyboard-response","258","2.1.0","604856","F=YES, J=NO","zs0kkpad0w","0","53","85","20","","","","","","","","","","","","","","","",""
"974","
          <p id=""word"" style=""font-size: 40px;"">wappings</p>
          <p style=""font-size: 16px;"">F = YES &nbsp;&nbsp;&nbsp; J = NO</p>
        ","f","html-keyboard-response","259","2.1.0","605831","F=YES, J=NO","zs0kkpad0w","0","53","85","20","","","","","","","","","wappings","road","pseudoword","pseudoword","j","false","",""
"null","<p style=""font-size: 50px;"">+</p>","null","html-keyboard-response","260","2.1.0","606140","F=YES, J=NO","zs0kkpad0w","0","53","85","20","","","","","","","","","","","","","","","",""
"null","audio/beep-329314.mp3","null","audio-keyboard-response","261","2.1.0","607665","F=YES, J=NO","zs0kkpad0w","0","53","85","20","","","","","","","","","","","","","","","",""
"null","audio/pride1.wav","null","audio-keyboard-response","262","2.1.0","608335","F=YES, J=NO","zs0kkpad0w","0","53","85","20","","","","","","","","","","","","","","","",""
"694","
          <p id=""word"" style=""font-size: 40px;"">hurt</p>
          <p style=""font-size: 16px;"">F = YES &nbsp;&nbsp;&nbsp; J = NO</p>
        ","f","html-keyboard-response","263","2.1.0","609030","F=YES, J=NO","zs0kkpad0w","0","53","85","20","","","","","","","","","hurt","pride1","metaphor","experimental","f","true","",""
"null","<p style=""font-size: 50px;"">+</p>","null","html-keyboard-response","264","2.1.0","609339","F=YES, J=NO","zs0kkpad0w","0","53","85","20","","","","","","","","","","","","","","","",""
"null","audio/beep-329314.mp3","null","audio-keyboard-response","265","2.1.0","610865","F=YES, J=NO","zs0kkpad0w","0","53","85","20","","","","","","","","","","","","","","","",""
"null","audio/novel.wav","null","audio-keyboard-response","266","2.1.0","611335","F=YES, J=NO","zs0kkpad0w","0","53","85","20","","","","","","","","","","","","","","","",""
"1110","
          <p id=""word"" style=""font-size: 40px;"">devour</p>
          <p style=""font-size: 16px;"">F = YES &nbsp;&nbsp;&nbsp; J = NO</p>
        ","j","html-keyboard-response","267","2.1.0","612446","F=YES, J=NO","zs0kkpad0w","0","53","85","20","","","","","","","","","devour","novel","metaphor","experimental","f","false","",""
"null","<p style=""font-size: 50px;"">+</p>","null","html-keyboard-response","268","2.1.0","612756","F=YES, J=NO","zs0kkpad0w","0","53","85","20","","","","","","","","","","","","","","","",""
"null","audio/beep-329314.mp3","null","audio-keyboard-response","269","2.1.0","614286","F=YES, J=NO","zs0kkpad0w","0","53","85","20","","","","","","","","","","","","","","","",""
"null","audio/survey1.wav","null","audio-keyboard-response","270","2.1.0","614996","F=YES, J=NO","zs0kkpad0w","0","53","85","20","","","","","","","","","","","","","","","",""
"586","
          <p id=""word"" style=""font-size: 40px;"">release</p>
          <p style=""font-size: 16px;"">F = YES &nbsp;&nbsp;&nbsp; J = NO</p>
        ","f","html-keyboard-response","271","2.1.0","615582","F=YES, J=NO","zs0kkpad0w","0","53","85","20","","","","","","","","","release","survey1","metaphor","experimental","f","true","",""
"null","<p style=""font-size: 50px;"">+</p>","null","html-keyboard-response","272","2.1.0","615886","F=YES, J=NO","zs0kkpad0w","0","53","85","20","","","","","","","","","","","","","","","",""
"null","audio/beep-329314.mp3","null","audio-keyboard-response","273","2.1.0","617426","F=YES, J=NO","zs0kkpad0w","0","53","85","20","","","","","","","","","","","","","","","",""
"null","audio/pain1.wav","null","audio-keyboard-response","274","2.1.0","617856","F=YES, J=NO","zs0kkpad0w","0","53","85","20","","","","","","","","","","","","","","","",""
"742","
          <p id=""word"" style=""font-size: 40px;"">sell</p>
          <p style=""font-size: 16px;"">F = YES &nbsp;&nbsp;&nbsp; J = NO</p>
        ","f","html-keyboard-response","275","2.1.0","618598","F=YES, J=NO","zs0kkpad0w","0","53","85","20","","","","","","","","","sell","pain1","unrelated","experimental","f","true","",""
"null","<p style=""font-size: 50px;"">+</p>","null","html-keyboard-response","276","2.1.0","618902","F=YES, J=NO","zs0kkpad0w","0","53","85","20","","","","","","","","","","","","","","","",""
"null","audio/beep-329314.mp3","null","audio-keyboard-response","277","2.1.0","620425","F=YES, J=NO","zs0kkpad0w","0","53","85","20","","","","","","","","","","","","","","","",""
"null","audio/key1.wav","null","audio-keyboard-response","278","2.1.0","620775","F=YES, J=NO","zs0kkpad0w","0","53","85","20","","","","","","","","","","","","","","","",""
"534","
          <p id=""word"" style=""font-size: 40px;"">lose</p>
          <p style=""font-size: 16px;"">F = YES &nbsp;&nbsp;&nbsp; J = NO</p>
        ","f","html-keyboard-response","279","2.1.0","621310","F=YES, J=NO","zs0kkpad0w","0","53","85","20","","","","","","","","","lose","key1","literal","experimental","f","true","",""
"null","<p style=""font-size: 50px;"">+</p>","null","html-keyboard-response","280","2.1.0","621612","F=YES, J=NO","zs0kkpad0w","0","53","85","20","","","","","","","","","","","","","","","",""
"null","audio/beep-329314.mp3","null","audio-keyboard-response","281","2.1.0","623145","F=YES, J=NO","zs0kkpad0w","0","53","85","20","","","","","","","","","","","","","","","",""
"null","audio/mile1.wav","null","audio-keyboard-response","282","2.1.0","623675","F=YES, J=NO","zs0kkpad0w","0","53","85","20","","","","","","","","","","","","","","","",""
"857","
          <p id=""word"" style=""font-size: 40px;"">writch</p>
          <p style=""font-size: 16px;"">F = YES &nbsp;&nbsp;&nbsp; J = NO</p>
        ","f","html-keyboard-response","283","2.1.0","624534","F=YES, J=NO","zs0kkpad0w","0","53","85","20","","","","","","","","","writch","mile1","pseudoword","pseudoword","j","false","",""
"null","<p style=""font-size: 50px;"">+</p>","null","html-keyboard-response","284","2.1.0","624845","F=YES, J=NO","zs0kkpad0w","0","53","85","20","","","","","","","","","","","","","","","",""
"null","audio/beep-329314.mp3","null","audio-keyboard-response","285","2.1.0","626385","F=YES, J=NO","zs0kkpad0w","0","53","85","20","","","","","","","","","","","","","","","",""
"null","audio/desire.wav","null","audio-keyboard-response","286","2.1.0","627035","F=YES, J=NO","zs0kkpad0w","0","53","85","20","","","","","","","","","","","","","","","",""
"922","
          <p id=""word"" style=""font-size: 40px;"">nophed</p>
          <p style=""font-size: 16px;"">F = YES &nbsp;&nbsp;&nbsp; J = NO</p>
        ","j","html-keyboard-response","287","2.1.0","627958","F=YES, J=NO","zs0kkpad0w","0","53","85","20","","","","","","","","","nophed","desire","pseudoword","pseudoword","j","true","",""
"null","<p style=""font-size: 50px;"">+</p>","null","html-keyboard-response","288","2.1.0","628261","F=YES, J=NO","zs0kkpad0w","0","53","85","20","","","","","","","","","","","","","","","",""
"null","audio/beep-329314.mp3","null","audio-keyboard-response","289","2.1.0","629786","F=YES, J=NO","zs0kkpad0w","0","53","85","20","","","","","","","","","","","","","","","",""
"null","audio/table1.wav","null","audio-keyboard-response","290","2.1.0","630255","F=YES, J=NO","zs0kkpad0w","0","53","85","20","","","","","","","","","","","","","","","",""
"1270","
          <p id=""word"" style=""font-size: 40px;"">stimb</p>
          <p style=""font-size: 16px;"">F = YES &nbsp;&nbsp;&nbsp; J = NO</p>
        ","f","html-keyboard-response","291","2.1.0","631526","F=YES, J=NO","zs0kkpad0w","0","53","85","20","","","","","","","","","stimb","table1","pseudoword","pseudoword","j","false","",""
"null","<p style=""font-size: 50px;"">+</p>","null","html-keyboard-response","292","2.1.0","631828","F=YES, J=NO","zs0kkpad0w","0","53","85","20","","","","","","","","","","","","","","","",""
"null","audio/beep-329314.mp3","null","audio-keyboard-response","293","2.1.0","633365","F=YES, J=NO","zs0kkpad0w","0","53","85","20","","","","","","","","","","","","","","","",""
"null","audio/church1.wav","null","audio-keyboard-response","294","2.1.0","634095","F=YES, J=NO","zs0kkpad0w","0","53","85","20","","","","","","","","","","","","","","","",""
"582","
          <p id=""word"" style=""font-size: 40px;"">cover</p>
          <p style=""font-size: 16px;"">F = YES &nbsp;&nbsp;&nbsp; J = NO</p>
        ","f","html-keyboard-response","295","2.1.0","634678","F=YES, J=NO","zs0kkpad0w","0","53","85","20","","","","","","","","","cover","church1","unrelated","experimental","f","true","",""
"1279","<p>Excellent! You have finished block 2 of 8.</p>
                     <p>Feel free to take a 30 second break.</p>
                     <p>Press any key when you're ready to continue.</p>"," ","html-keyboard-response","296","2.1.0","635958","F=YES, J=NO","zs0kkpad0w","0","53","85","20","","","","","","","","","","","","","","","",""
"399","<p>Starting main block 3 of 8. Press any key to continue.</p>"," ","html-keyboard-response","297","2.1.0","636358","F=YES, J=NO","zs0kkpad0w","0","53","85","20","","","","","","","","","","","","","","","",""
"null","<p style=""font-size: 50px;"">+</p>","null","html-keyboard-response","298","2.1.0","636661","F=YES, J=NO","zs0kkpad0w","0","53","85","20","","","","","","","","","","","","","","","",""
"null","audio/beep-329314.mp3","null","audio-keyboard-response","299","2.1.0","638185","F=YES, J=NO","zs0kkpad0w","0","53","85","20","","","","","","","","","","","","","","","",""
"null","audio/vehicle1.wav","null","audio-keyboard-response","300","2.1.0","638876","F=YES, J=NO","zs0kkpad0w","0","53","85","20","","","","","","","","","","","","","","","",""
"698","
          <p id=""word"" style=""font-size: 40px;"">approach</p>
          <p style=""font-size: 16px;"">F = YES &nbsp;&nbsp;&nbsp; J = NO</p>
        ","f","html-keyboard-response","301","2.1.0","639575","F=YES, J=NO","zs0kkpad0w","0","53","85","20","","","","","","","","","approach","vehicle1","literal","experimental","f","true","",""
"null","<p style=""font-size: 50px;"">+</p>","null","html-keyboard-response","302","2.1.0","639878","F=YES, J=NO","zs0kkpad0w","0","53","85","20","","","","","","","","","","","","","","","",""
"null","audio/beep-329314.mp3","null","audio-keyboard-response","303","2.1.0","641406","F=YES, J=NO","zs0kkpad0w","0","53","85","20","","","","","","","","","","","","","","","",""
"null","audio/breath.wav","null","audio-keyboard-response","304","2.1.0","642055","F=YES, J=NO","zs0kkpad0w","0","53","85","20","","","","","","","","","","","","","","","",""
"518","
          <p id=""word"" style=""font-size: 40px;"">pack</p>
          <p style=""font-size: 16px;"">F = YES &nbsp;&nbsp;&nbsp; J = NO</p>
        ","f","html-keyboard-response","305","2.1.0","642575","F=YES, J=NO","zs0kkpad0w","0","53","85","20","","","","","","","","","pack","breath","filler","filler","f","true","",""
"null","<p style=""font-size: 50px;"">+</p>","null","html-keyboard-response","306","2.1.0","642878","F=YES, J=NO","zs0kkpad0w","0","53","85","20","","","","","","","","","","","","","","","",""
"null","audio/beep-329314.mp3","null","audio-keyboard-response","307","2.1.0","644405","F=YES, J=NO","zs0kkpad0w","0","53","85","20","","","","","","","","","","","","","","","",""
"null","audio/floor.wav","null","audio-keyboard-response","308","2.1.0","644976","F=YES, J=NO","zs0kkpad0w","0","53","85","20","","","","","","","","","","","","","","","",""
"662","
          <p id=""word"" style=""font-size: 40px;"">mop</p>
          <p style=""font-size: 16px;"">F = YES &nbsp;&nbsp;&nbsp; J = NO</p>
        ","f","html-keyboard-response","309","2.1.0","645639","F=YES, J=NO","zs0kkpad0w","0","53","85","20","","","","","","","","","mop","floor","filler","filler","f","true","",""
"null","<p style=""font-size: 50px;"">+</p>","null","html-keyboard-response","310","2.1.0","645944","F=YES, J=NO","zs0kkpad0w","0","53","85","20","","","","","","","","","","","","","","","",""
"null","audio/beep-329314.mp3","null","audio-keyboard-response","311","2.1.0","647465","F=YES, J=NO","zs0kkpad0w","0","53","85","20","","","","","","","","","","","","","","","",""
"null","audio/corpse1.wav","null","audio-keyboard-response","312","2.1.0","648115","F=YES, J=NO","zs0kkpad0w","0","53","85","20","","","","","","","","","","","","","","","",""
"794","
          <p id=""word"" style=""font-size: 40px;"">glonet</p>
          <p style=""font-size: 16px;"">F = YES &nbsp;&nbsp;&nbsp; J = NO</p>
        ","j","html-keyboard-response","313","2.1.0","648910","F=YES, J=NO","zs0kkpad0w","0","53","85","20","","","","","","","","","glonet","corpse1","pseudoword","pseudoword","j","true","",""
"null","<p style=""font-size: 50px;"">+</p>","null","html-keyboard-response","314","2.1.0","649221","F=YES, J=NO","zs0kkpad0w","0","53","85","20","","","","","","","","","","","","","","","",""
"null","audio/beep-329314.mp3","null","audio-keyboard-response","315","2.1.0","650746","F=YES, J=NO","zs0kkpad0w","0","53","85","20","","","","","","","","","","","","","","","",""
"null","audio/purpose.wav","null","audio-keyboard-response","316","2.1.0","651395","F=YES, J=NO","zs0kkpad0w","0","53","85","20","","","","","","","","","","","","","","","",""
"826","
          <p id=""word"" style=""font-size: 40px;"">whigm</p>
          <p style=""font-size: 16px;"">F = YES &nbsp;&nbsp;&nbsp; J = NO</p>
        ","j","html-keyboard-response","317","2.1.0","652222","F=YES, J=NO","zs0kkpad0w","0","53","85","20","","","","","","","","","whigm","purpose","pseudoword","pseudoword","j","true","",""
"null","<p style=""font-size: 50px;"">+</p>","null","html-keyboard-response","318","2.1.0","652527","F=YES, J=NO","zs0kkpad0w","0","53","85","20","","","","","","","","","","","","","","","",""
"null","audio/beep-329314.mp3","null","audio-keyboard-response","319","2.1.0","654065","F=YES, J=NO","zs0kkpad0w","0","53","85","20","","","","","","","","","","","","","","","",""
"null","audio/flaw.wav","null","audio-keyboard-response","320","2.1.0","654716","F=YES, J=NO","zs0kkpad0w","0","53","85","20","","","","","","","","","","","","","","","",""
"1194","
          <p id=""word"" style=""font-size: 40px;"">thwool</p>
          <p style=""font-size: 16px;"">F = YES &nbsp;&nbsp;&nbsp; J = NO</p>
        ","j","html-keyboard-response","321","2.1.0","655910","F=YES, J=NO","zs0kkpad0w","0","53","85","20","","","","","","","","","thwool","flaw","pseudoword","pseudoword","j","true","",""
"null","<p style=""font-size: 50px;"">+</p>","null","html-keyboard-response","322","2.1.0","656220","F=YES, J=NO","zs0kkpad0w","0","53","85","20","","","","","","","","","","","","","","","",""
"null","audio/beep-329314.mp3","null","audio-keyboard-response","323","2.1.0","657746","F=YES, J=NO","zs0kkpad0w","0","53","85","20","","","","","","","","","","","","","","","",""
"null","audio/brain.wav","null","audio-keyboard-response","324","2.1.0","658255","F=YES, J=NO","zs0kkpad0w","0","53","85","20","","","","","","","","","","","","","","","",""
"558","
          <p id=""word"" style=""font-size: 40px;"">throw</p>
          <p style=""font-size: 16px;"">F = YES &nbsp;&nbsp;&nbsp; J = NO</p>
        ","f","html-keyboard-response","325","2.1.0","658814","F=YES, J=NO","zs0kkpad0w","0","53","85","20","","","","","","","","","throw","brain","filler","filler","f","true","",""
"null","<p style=""font-size: 50px;"">+</p>","null","html-keyboard-response","326","2.1.0","659117","F=YES, J=NO","zs0kkpad0w","0","53","85","20","","","","","","","","","","","","","","","",""
"null","audio/beep-329314.mp3","null","audio-keyboard-response","327","2.1.0","660646","F=YES, J=NO","zs0kkpad0w","0","53","85","20","","","","","","","","","","","","","","","",""
"null","audio/strength.wav","null","audio-keyboard-response","328","2.1.0","661355","F=YES, J=NO","zs0kkpad0w","0","53","85","20","","","","","","","","","","","","","","","",""
"866","
          <p id=""word"" style=""font-size: 40px;"">possess</p>
          <p style=""font-size: 16px;"">F = YES &nbsp;&nbsp;&nbsp; J = NO</p>
        ","f","html-keyboard-response","329","2.1.0","662222","F=YES, J=NO","zs0kkpad0w","0","53","85","20","","","","","","","","","possess","strength","metaphor","experimental","f","true","",""
"null","<p style=""font-size: 50px;"">+</p>","null","html-keyboard-response","330","2.1.0","662526","F=YES, J=NO","zs0kkpad0w","0","53","85","20","","","","","","","","","","","","","","","",""
"null","audio/beep-329314.mp3","null","audio-keyboard-response","331","2.1.0","664065","F=YES, J=NO","zs0kkpad0w","0","53","85","20","","","","","","","","","","","","","","","",""
"null","audio/handle.wav","null","audio-keyboard-response","332","2.1.0","664675","F=YES, J=NO","zs0kkpad0w","0","53","85","20","","","","","","","","","","","","","","","",""
"826","
          <p id=""word"" style=""font-size: 40px;"">moutes</p>
          <p style=""font-size: 16px;"">F = YES &nbsp;&nbsp;&nbsp; J = NO</p>
        ","j","html-keyboard-response","333","2.1.0","665502","F=YES, J=NO","zs0kkpad0w","0","53","85","20","","","","","","","","","moutes","handle","pseudoword","pseudoword","j","true","",""
"null","<p style=""font-size: 50px;"">+</p>","null","html-keyboard-response","334","2.1.0","665807","F=YES, J=NO","zs0kkpad0w","0","53","85","20","","","","","","","","","","","","","","","",""
"null","audio/beep-329314.mp3","null","audio-keyboard-response","335","2.1.0","667345","F=YES, J=NO","zs0kkpad0w","0","53","85","20","","","","","","","","","","","","","","","",""
"null","audio/trust.wav","null","audio-keyboard-response","336","2.1.0","667995","F=YES, J=NO","zs0kkpad0w","0","53","85","20","","","","","","","","","","","","","","","",""
"906","
          <p id=""word"" style=""font-size: 40px;"">swint</p>
          <p style=""font-size: 16px;"">F = YES &nbsp;&nbsp;&nbsp; J = NO</p>
        ","j","html-keyboard-response","337","2.1.0","668902","F=YES, J=NO","zs0kkpad0w","0","53","85","20","","","","","","","","","swint","trust","pseudoword","pseudoword","j","true","",""
"null","<p style=""font-size: 50px;"">+</p>","null","html-keyboard-response","338","2.1.0","669206","F=YES, J=NO","zs0kkpad0w","0","53","85","20","","","","","","","","","","","","","","","",""
"null","audio/beep-329314.mp3","null","audio-keyboard-response","339","2.1.0","670746","F=YES, J=NO","zs0kkpad0w","0","53","85","20","","","","","","","","","","","","","","","",""
"null","audio/cloud1.wav","null","audio-keyboard-response","340","2.1.0","671315","F=YES, J=NO","zs0kkpad0w","0","53","85","20","","","","","","","","","","","","","","","",""
"1050","
          <p id=""word"" style=""font-size: 40px;"">brotant</p>
          <p style=""font-size: 16px;"">F = YES &nbsp;&nbsp;&nbsp; J = NO</p>
        ","j","html-keyboard-response","341","2.1.0","672366","F=YES, J=NO","zs0kkpad0w","0","53","85","20","","","","","","","","","brotant","cloud1","pseudoword","pseudoword","j","true","",""
"null","<p style=""font-size: 50px;"">+</p>","null","html-keyboard-response","342","2.1.0","672669","F=YES, J=NO","zs0kkpad0w","0","53","85","20","","","","","","","","","","","","","","","",""
"null","audio/beep-329314.mp3","null","audio-keyboard-response","343","2.1.0","674205","F=YES, J=NO","zs0kkpad0w","0","53","85","20","","","","","","","","","","","","","","","",""
"null","audio/kettle1.wav","null","audio-keyboard-response","344","2.1.0","674655","F=YES, J=NO","zs0kkpad0w","0","53","85","20","","","","","","","","","","","","","","","",""
"694","
          <p id=""word"" style=""font-size: 40px;"">navigate</p>
          <p style=""font-size: 16px;"">F = YES &nbsp;&nbsp;&nbsp; J = NO</p>
        ","f","html-keyboard-response","345","2.1.0","675350","F=YES, J=NO","zs0kkpad0w","0","53","85","20","","","","","","","","","navigate","kettle1","unrelated","experimental","f","true","",""
"null","<p style=""font-size: 50px;"">+</p>","null","html-keyboard-response","346","2.1.0","675654","F=YES, J=NO","zs0kkpad0w","0","53","85","20","","","","","","","","","","","","","","","",""
"null","audio/beep-329314.mp3","null","audio-keyboard-response","347","2.1.0","677185","F=YES, J=NO","zs0kkpad0w","0","53","85","20","","","","","","","","","","","","","","","",""
"null","audio/truth1.wav","null","audio-keyboard-response","348","2.1.0","677755","F=YES, J=NO","zs0kkpad0w","0","53","85","20","","","","","","","","","","","","","","","",""
"594","
          <p id=""word"" style=""font-size: 40px;"">expose</p>
          <p style=""font-size: 16px;"">F = YES &nbsp;&nbsp;&nbsp; J = NO</p>
        ","f","html-keyboard-response","349","2.1.0","678350","F=YES, J=NO","zs0kkpad0w","0","53","85","20","","","","","","","","","expose","truth1","metaphor","experimental","f","true","",""
"null","<p style=""font-size: 50px;"">+</p>","null","html-keyboard-response","350","2.1.0","678654","F=YES, J=NO","zs0kkpad0w","0","53","85","20","","","","","","","","","","","","","","","",""
"null","audio/beep-329314.mp3","null","audio-keyboard-response","351","2.1.0","680185","F=YES, J=NO","zs0kkpad0w","0","53","85","20","","","","","","","","","","","","","","","",""
"null","audio/sugar1.wav","null","audio-keyboard-response","352","2.1.0","680795","F=YES, J=NO","zs0kkpad0w","0","53","85","20","","","","","","","","","","","","","","","",""
"962","
          <p id=""word"" style=""font-size: 40px;"">glung</p>
          <p style=""font-size: 16px;"">F = YES &nbsp;&nbsp;&nbsp; J = NO</p>
        ","j","html-keyboard-response","353","2.1.0","681758","F=YES, J=NO","zs0kkpad0w","0","53","85","20","","","","","","","","","glung","sugar1","pseudoword","pseudoword","j","true","",""
"null","<p style=""font-size: 50px;"">+</p>","null","html-keyboard-response","354","2.1.0","682061","F=YES, J=NO","zs0kkpad0w","0","53","85","20","","","","","","","","","","","","","","","",""
"null","audio/beep-329314.mp3","null","audio-keyboard-response","355","2.1.0","683586","F=YES, J=NO","zs0kkpad0w","0","53","85","20","","","","","","","","","","","","","","","",""
"null","audio/beach1.wav","null","audio-keyboard-response","356","2.1.0","684175","F=YES, J=NO","zs0kkpad0w","0","53","85","20","","","","","","","","","","","","","","","",""
"661","
          <p id=""word"" style=""font-size: 40px;"">cut</p>
          <p style=""font-size: 16px;"">F = YES &nbsp;&nbsp;&nbsp; J = NO</p>
        ","f","html-keyboard-response","357","2.1.0","684838","F=YES, J=NO","zs0kkpad0w","0","53","85","20","","","","","","","","","cut","beach1","unrelated","experimental","f","true","",""
"null","<p style=""font-size: 50px;"">+</p>","null","html-keyboard-response","358","2.1.0","685141","F=YES, J=NO","zs0kkpad0w","0","53","85","20","","","","","","","","","","","","","","","",""
"null","audio/beep-329314.mp3","null","audio-keyboard-response","359","2.1.0","686665","F=YES, J=NO","zs0kkpad0w","0","53","85","20","","","","","","","","","","","","","","","",""
"null","audio/pine.wav","null","audio-keyboard-response","360","2.1.0","687195","F=YES, J=NO","zs0kkpad0w","0","53","85","20","","","","","","","","","","","","","","","",""
"1258","
          <p id=""word"" style=""font-size: 40px;"">crebble</p>
          <p style=""font-size: 16px;"">F = YES &nbsp;&nbsp;&nbsp; J = NO</p>
        ","f","html-keyboard-response","361","2.1.0","688454","F=YES, J=NO","zs0kkpad0w","0","53","85","20","","","","","","","","","crebble","pine","pseudoword","pseudoword","j","false","",""
"1319","<p>Excellent! You have finished block 3 of 8.</p>
                     <p>Feel free to take a 30 second break.</p>
                     <p>Press any key when you're ready to continue.</p>"," ","html-keyboard-response","362","2.1.0","689774","F=YES, J=NO","zs0kkpad0w","0","53","85","20","","","","","","","","","","","","","","","",""
"567","<p>Starting main block 4 of 8. Press any key to continue.</p>"," ","html-keyboard-response","363","2.1.0","690342","F=YES, J=NO","zs0kkpad0w","0","53","85","20","","","","","","","","","","","","","","","",""
"null","<p style=""font-size: 50px;"">+</p>","null","html-keyboard-response","364","2.1.0","690646","F=YES, J=NO","zs0kkpad0w","0","53","85","20","","","","","","","","","","","","","","","",""
"null","audio/beep-329314.mp3","null","audio-keyboard-response","365","2.1.0","692185","F=YES, J=NO","zs0kkpad0w","0","53","85","20","","","","","","","","","","","","","","","",""
"null","audio/dollar.wav","null","audio-keyboard-response","366","2.1.0","692555","F=YES, J=NO","zs0kkpad0w","0","53","85","20","","","","","","","","","","","","","","","",""
"570","
          <p id=""word"" style=""font-size: 40px;"">save</p>
          <p style=""font-size: 16px;"">F = YES &nbsp;&nbsp;&nbsp; J = NO</p>
        ","f","html-keyboard-response","367","2.1.0","693126","F=YES, J=NO","zs0kkpad0w","0","53","85","20","","","","","","","","","save","dollar","literal","experimental","f","true","",""
"null","<p style=""font-size: 50px;"">+</p>","null","html-keyboard-response","368","2.1.0","693430","F=YES, J=NO","zs0kkpad0w","0","53","85","20","","","","","","","","","","","","","","","",""
"null","audio/beep-329314.mp3","null","audio-keyboard-response","369","2.1.0","694965","F=YES, J=NO","zs0kkpad0w","0","53","85","20","","","","","","","","","","","","","","","",""
"null","audio/flaw.wav","null","audio-keyboard-response","370","2.1.0","695575","F=YES, J=NO","zs0kkpad0w","0","53","85","20","","","","","","","","","","","","","","","",""
"590","
          <p id=""word"" style=""font-size: 40px;"">hide</p>
          <p style=""font-size: 16px;"">F = YES &nbsp;&nbsp;&nbsp; J = NO</p>
        ","f","html-keyboard-response","371","2.1.0","696166","F=YES, J=NO","zs0kkpad0w","0","53","85","20","","","","","","","","","hide","flaw","metaphor","experimental","f","true","",""
"null","<p style=""font-size: 50px;"">+</p>","null","html-keyboard-response","372","2.1.0","696474","F=YES, J=NO","zs0kkpad0w","0","53","85","20","","","","","","","","","","","","","","","",""
"null","audio/beep-329314.mp3","null","audio-keyboard-response","373","2.1.0","698005","F=YES, J=NO","zs0kkpad0w","0","53","85","20","","","","","","","","","","","","","","","",""
"null","audio/account1.wav","null","audio-keyboard-response","374","2.1.0","698675","F=YES, J=NO","zs0kkpad0w","0","53","85","20","","","","","","","","","","","","","","","",""
"506","
          <p id=""word"" style=""font-size: 40px;"">open</p>
          <p style=""font-size: 16px;"">F = YES &nbsp;&nbsp;&nbsp; J = NO</p>
        ","f","html-keyboard-response","375","2.1.0","699182","F=YES, J=NO","zs0kkpad0w","0","53","85","20","","","","","","","","","open","account1","metaphor","experimental","f","true","",""
"null","<p style=""font-size: 50px;"">+</p>","null","html-keyboard-response","376","2.1.0","699491","F=YES, J=NO","zs0kkpad0w","0","53","85","20","","","","","","","","","","","","","","","",""
"null","audio/beep-329314.mp3","null","audio-keyboard-response","377","2.1.0","701025","F=YES, J=NO","zs0kkpad0w","0","53","85","20","","","","","","","","","","","","","","","",""
"null","audio/radio1.wav","null","audio-keyboard-response","378","2.1.0","701675","F=YES, J=NO","zs0kkpad0w","0","53","85","20","","","","","","","","","","","","","","","",""
"1042","
          <p id=""word"" style=""font-size: 40px;"">blanter</p>
          <p style=""font-size: 16px;"">F = YES &nbsp;&nbsp;&nbsp; J = NO</p>
        ","j","html-keyboard-response","379","2.1.0","702718","F=YES, J=NO","zs0kkpad0w","0","53","85","20","","","","","","","","","blanter","radio1","pseudoword","pseudoword","j","true","",""
"null","<p style=""font-size: 50px;"">+</p>","null","html-keyboard-response","380","2.1.0","703024","F=YES, J=NO","zs0kkpad0w","0","53","85","20","","","","","","","","","","","","","","","",""
"null","audio/beep-329314.mp3","null","audio-keyboard-response","381","2.1.0","704545","F=YES, J=NO","zs0kkpad0w","0","53","85","20","","","","","","","","","","","","","","","",""
"null","audio/client1.wav","null","audio-keyboard-response","382","2.1.0","705255","F=YES, J=NO","zs0kkpad0w","0","53","85","20","","","","","","","","","","","","","","","",""
"846","
          <p id=""word"" style=""font-size: 40px;"">droothe</p>
          <p style=""font-size: 16px;"">F = YES &nbsp;&nbsp;&nbsp; J = NO</p>
        ","f","html-keyboard-response","383","2.1.0","706102","F=YES, J=NO","zs0kkpad0w","0","53","85","20","","","","","","","","","droothe","client1","pseudoword","pseudoword","j","false","",""
"null","<p style=""font-size: 50px;"">+</p>","null","html-keyboard-response","384","2.1.0","706408","F=YES, J=NO","zs0kkpad0w","0","53","85","20","","","","","","","","","","","","","","","",""
"null","audio/beep-329314.mp3","null","audio-keyboard-response","385","2.1.0","707945","F=YES, J=NO","zs0kkpad0w","0","53","85","20","","","","","","","","","","","","","","","",""
"null","audio/empire.wav","null","audio-keyboard-response","386","2.1.0","708595","F=YES, J=NO","zs0kkpad0w","0","53","85","20","","","","","","","","","","","","","","","",""
"946","
          <p id=""word"" style=""font-size: 40px;"">slorby</p>
          <p style=""font-size: 16px;"">F = YES &nbsp;&nbsp;&nbsp; J = NO</p>
        ","j","html-keyboard-response","387","2.1.0","709542","F=YES, J=NO","zs0kkpad0w","0","53","85","20","","","","","","","","","slorby","empire","pseudoword","pseudoword","j","true","",""
"null","<p style=""font-size: 50px;"">+</p>","null","html-keyboard-response","388","2.1.0","709847","F=YES, J=NO","zs0kkpad0w","0","53","85","20","","","","","","","","","","","","","","","",""
"null","audio/beep-329314.mp3","null","audio-keyboard-response","389","2.1.0","711385","F=YES, J=NO","zs0kkpad0w","0","53","85","20","","","","","","","","","","","","","","","",""
"null","audio/lion1.wav","null","audio-keyboard-response","390","2.1.0","711955","F=YES, J=NO","zs0kkpad0w","0","53","85","20","","","","","","","","","","","","","","","",""
"706","
          <p id=""word"" style=""font-size: 40px;"">wrestle</p>
          <p style=""font-size: 16px;"">F = YES &nbsp;&nbsp;&nbsp; J = NO</p>
