"rt","stimulus","response","trial_type","trial_index","plugin_version","time_elapsed","response_mapping","subject_id","list_index","lextale_score","lextale_word_score","lextale_nonword_score","success","timeout","failed_images","failed_audio","failed_video","task","isWord","isDummy","target","prime","prime_type","stimulus_type","correct_response","correct","section","question_order"
"2697","
    <div style=""max-width: 800px; margin: auto; text-align: left;"">
      <h2>STANFORD UNIVERSITY</h2>
      <h3>Research Information Sheet</h3>
      <p><strong>Protocol Director:</strong> Robert Hawkins<br>
      <strong>Protocol Title:</strong> Communication and social cognition in natural audiovisual contexts<br>
      <strong>IRB#:</strong> 77226</p>

      <p><strong>DESCRIPTION:</strong> You are invited to participate in a research study about language and communication. The purpose of the research is to understand how you interact and communicate with other people in naturalistic settings as a fluent English speaker. This research will be conducted through the Prolific platform, including participants from the US, UK, and Canada. If you decide to participate in this research, you will play a communication game in a group with one or more partners.</p>

      <p><strong>TIME INVOLVEMENT:</strong> The task will last the amount of time advertised on Prolific. You are free to withdraw from the study at any time.</p>

      <p><strong>RISKS AND BENEFITS:</strong> You may become frustrated if your partner gets distracted, or experience discomfort if other participants in your group send text that is inappropriate for the task. We ask you to please be respectful of other participants you might be interacting with to mitigate these risks. You may also experience discomfort when being asked to discuss or challenge emotionally salient political beliefs. Study data will be stored securely, in compliance with Stanford University standards, minimizing the risk of confidentiality breach. This study advances our scientific understanding of how people communicate and collaborate in naturalistic settings. This study may lead to further insights about what can go wrong in teamwork, suggest potential interventions to overcome these barriers, and help to develop assistive technologies that collaborate with human partners. We cannot and do not guarantee or promise that you will receive any benefits from this study.</p>

      <p><strong>PAYMENTS:</strong> You will receive payment in the amount advertised on Prolific. If you do not complete this study, you will receive prorated payment based on the time that you have spent. Additionally, you may be eligible for bonus payments as described in the instructions.</p>

      <p><strong>PARTICIPANT’S RIGHTS:</strong> If you have read this form and have decided to participate in this project, please understand your participation is voluntary and you have the right to withdraw your consent or discontinue participation at any time without penalty or loss of benefits to which you are otherwise entitled. The alternative is not to participate. You have the right to refuse to answer particular questions. The results of this research study may be presented at scientific or professional meetings or published in scientific journals. Your individual privacy will be maintained in all published and written data resulting from the study. In accordance with scientific norms, the data from this study may be used or shared with other researchers for future research (after removing personally identifying information) without additional consent from you.</p>

      <p><strong>CONTACT INFORMATION:</strong><br>
      Questions: If you have any questions, concerns or complaints about this research, its procedures, risks and benefits, contact the Protocol Director, Robert Hawkins (<a href=""mailto:rdhawkins@stanford.edu"">rdhawkins@stanford.edu</a>, 217-549-6923).<br>
      Independent Contact: If you are not satisfied with how this study is being conducted, or if you have any concerns, complaints, or general questions about the research or your rights as a participant, please contact the Stanford Institutional Review Board (IRB) to speak to someone independent of the research team at 650-723-2480 or toll free at 1-866-680-2906, or email at <a href=""mailto:irbnon-med@stanford.edu"">irbnon-med@stanford.edu</a>. You can also write to the Stanford IRB, Stanford University, 1705 El Camino Real, Palo Alto, CA 94306.</p>

      <p><strong>Please save or print a copy of this page for your records.</strong></p>
      <p>If you agree to participate in this research, click ""Continue"" below.</p>
    </div>
  ","0","html-button-response","0","2.1.0","2703","J=YES, F=NO","zv5pmevl62","2","75","85","65","","","","","","","","","","","","","","","",""
"11082","
    <div style=""max-width: 800px; margin: auto; text-align: left;"">
      <h2>Welcome!</h2>
      <p>Thank you for participating in this study. The experiment consists of three parts:</p>
      <ol>
        <li>An English vocabulary test</li>
        <li>A main task in which you will hear and see words, and decide whether the written word is a real English word</li>
        <li>A brief survey about your background</li>
      </ol>
      <p>Each part will be introduced before it begins.</p>
      <p>Please make sure you are in a quiet environment and can hear audio clearly for the final task.</p>
      <p style=""margin-top: 2em;"">Press any key to begin.</p>
    </div>
  "," ","html-keyboard-response","1","2.1.0","13787","J=YES, F=NO","zv5pmevl62","2","75","85","65","","","","","","","","","","","","","","","",""
"","","","preload","2","2.1.0","14254","J=YES, F=NO","zv5pmevl62","2","75","85","65","true","false","[]","[]","[]","","","","","","","","","","",""
"4595","
    <div style=""max-width: 800px; margin: auto; text-align: left;"">
      <h2>Part 1: Vocabulary Test</h2>
      <p>You will now complete the first part of the study: a short English vocabulary test.</p>
      <p>This test is called <strong>LexTALE</strong> and helps us get a general sense of your English proficiency.</p>
      <p style=""margin-top: 2em;"">Press any key to continue.</p>
    </div>
  "," ","html-keyboard-response","3","2.1.0","18850","J=YES, F=NO","zv5pmevl62","2","75","85","65","","","","","","","","","","","","","","","",""
"4172","
    <div style=""max-width: 800px; margin: auto; text-align: left;"">
      <h2>LexTALE Vocabulary Test</h2>
      <p>In this test, you will see a series of letter strings—one at a time.</p>
      <p>Your task is to decide whether each string is a real English word.</p>
      <p><strong>Key responses:</strong></p>
      <ul>
        <li><strong>J</strong> = YES (real English word)</li>
        <li><strong>F</strong> = NO (not a real English word)</li>
      </ul>
      <p>There is no time limit, but please try to be accurate.</p>
      <p style=""margin-top: 2em;"">Press any key to begin.</p>
    </div>
  "," ","html-keyboard-response","4","2.1.0","23023","J=YES, F=NO","zv5pmevl62","2","75","85","65","","","","","","","","","","","","","","","",""
"2937","
  <p style=""font-size: 40px;"">platery</p>
  <p style=""font-size: 16px;"">J = YES &nbsp;&nbsp;&nbsp; F = NO</p>
","j","html-keyboard-response","5","2.1.0","25961","J=YES, F=NO","zv5pmevl62","2","75","85","65","","","","","","lextale","false","true","","","","","","","",""
"1179","
  <p style=""font-size: 40px;"">denial</p>
  <p style=""font-size: 16px;"">J = YES &nbsp;&nbsp;&nbsp; F = NO</p>
","j","html-keyboard-response","6","2.1.0","27141","J=YES, F=NO","zv5pmevl62","2","75","85","65","","","","","","lextale","true","true","","","","","","","",""
"1157","
  <p style=""font-size: 40px;"">marrit</p>
  <p style=""font-size: 16px;"">J = YES &nbsp;&nbsp;&nbsp; F = NO</p>
","j","html-keyboard-response","7","2.1.0","28299","J=YES, F=NO","zv5pmevl62","2","75","85","65","","","","","","lextale","false","true","","","","","","","",""
"680","
  <p style=""font-size: 40px;"">bottle</p>
  <p style=""font-size: 16px;"">J = YES &nbsp;&nbsp;&nbsp; F = NO</p>
","j","html-keyboard-response","8","2.1.0","28980","J=YES, F=NO","zv5pmevl62","2","75","85","65","","","","","","lextale","true","false","","","","","","","",""
"1348","
  <p style=""font-size: 40px;"">birst</p>
  <p style=""font-size: 16px;"">J = YES &nbsp;&nbsp;&nbsp; F = NO</p>
","f","html-keyboard-response","9","2.1.0","30329","J=YES, F=NO","zv5pmevl62","2","75","85","65","","","","","","lextale","false","false","","","","","","","",""
"879","
  <p style=""font-size: 40px;"">envy</p>
  <p style=""font-size: 16px;"">J = YES &nbsp;&nbsp;&nbsp; F = NO</p>
","j","html-keyboard-response","10","2.1.0","31209","J=YES, F=NO","zv5pmevl62","2","75","85","65","","","","","","lextale","true","false","","","","","","","",""
"1326","
  <p style=""font-size: 40px;"">brang</p>
  <p style=""font-size: 16px;"">J = YES &nbsp;&nbsp;&nbsp; F = NO</p>
","f","html-keyboard-response","11","2.1.0","32536","J=YES, F=NO","zv5pmevl62","2","75","85","65","","","","","","lextale","false","false","","","","","","","",""
"706","
  <p style=""font-size: 40px;"">huge</p>
  <p style=""font-size: 16px;"">J = YES &nbsp;&nbsp;&nbsp; F = NO</p>
","j","html-keyboard-response","12","2.1.0","33243","J=YES, F=NO","zv5pmevl62","2","75","85","65","","","","","","lextale","true","false","","","","","","","",""
"875","
  <p style=""font-size: 40px;"">plove</p>
  <p style=""font-size: 16px;"">J = YES &nbsp;&nbsp;&nbsp; F = NO</p>
","j","html-keyboard-response","13","2.1.0","34119","J=YES, F=NO","zv5pmevl62","2","75","85","65","","","","","","lextale","false","false","","","","","","","",""
"636","
  <p style=""font-size: 40px;"">border</p>
  <p style=""font-size: 16px;"">J = YES &nbsp;&nbsp;&nbsp; F = NO</p>
","j","html-keyboard-response","14","2.1.0","34756","J=YES, F=NO","zv5pmevl62","2","75","85","65","","","","","","lextale","true","false","","","","","","","",""
"1006","
  <p style=""font-size: 40px;"">flimsy</p>
  <p style=""font-size: 16px;"">J = YES &nbsp;&nbsp;&nbsp; F = NO</p>
","j","html-keyboard-response","15","2.1.0","35762","J=YES, F=NO","zv5pmevl62","2","75","85","65","","","","","","lextale","true","false","","","","","","","",""
"659","
  <p style=""font-size: 40px;"">drain</p>
  <p style=""font-size: 16px;"">J = YES &nbsp;&nbsp;&nbsp; F = NO</p>
","j","html-keyboard-response","16","2.1.0","36421","J=YES, F=NO","zv5pmevl62","2","75","85","65","","","","","","lextale","true","false","","","","","","","",""
"983","
  <p style=""font-size: 40px;"">twindle</p>
  <p style=""font-size: 16px;"">J = YES &nbsp;&nbsp;&nbsp; F = NO</p>
","j","html-keyboard-response","17","2.1.0","37405","J=YES, F=NO","zv5pmevl62","2","75","85","65","","","","","","lextale","false","false","","","","","","","",""
"680","
  <p style=""font-size: 40px;"">propose</p>
  <p style=""font-size: 16px;"">J = YES &nbsp;&nbsp;&nbsp; F = NO</p>
","j","html-keyboard-response","18","2.1.0","38086","J=YES, F=NO","zv5pmevl62","2","75","85","65","","","","","","lextale","true","false","","","","","","","",""
"1005","
  <p style=""font-size: 40px;"">forlay</p>
  <p style=""font-size: 16px;"">J = YES &nbsp;&nbsp;&nbsp; F = NO</p>
","j","html-keyboard-response","19","2.1.0","39092","J=YES, F=NO","zv5pmevl62","2","75","85","65","","","","","","lextale","false","false","","","","","","","",""
"680","
  <p style=""font-size: 40px;"">tenant</p>
  <p style=""font-size: 16px;"">J = YES &nbsp;&nbsp;&nbsp; F = NO</p>
","j","html-keyboard-response","20","2.1.0","39772","J=YES, F=NO","zv5pmevl62","2","75","85","65","","","","","","lextale","true","false","","","","","","","",""
"681","
  <p style=""font-size: 40px;"">strain</p>
  <p style=""font-size: 16px;"">J = YES &nbsp;&nbsp;&nbsp; F = NO</p>
","j","html-keyboard-response","21","2.1.0","40453","J=YES, F=NO","zv5pmevl62","2","75","85","65","","","","","","lextale","true","false","","","","","","","",""
"2199","
  <p style=""font-size: 40px;"">holster</p>
  <p style=""font-size: 16px;"">J = YES &nbsp;&nbsp;&nbsp; F = NO</p>
","j","html-keyboard-response","22","2.1.0","42653","J=YES, F=NO","zv5pmevl62","2","75","85","65","","","","","","lextale","true","false","","","","","","","",""
"1136","
  <p style=""font-size: 40px;"">hinder</p>
  <p style=""font-size: 16px;"">J = YES &nbsp;&nbsp;&nbsp; F = NO</p>
","j","html-keyboard-response","23","2.1.0","43789","J=YES, F=NO","zv5pmevl62","2","75","85","65","","","","","","lextale","true","false","","","","","","","",""
"592","
  <p style=""font-size: 40px;"">swindle</p>
  <p style=""font-size: 16px;"">J = YES &nbsp;&nbsp;&nbsp; F = NO</p>
","j","html-keyboard-response","24","2.1.0","44382","J=YES, F=NO","zv5pmevl62","2","75","85","65","","","","","","lextale","true","false","","","","","","","",""
"1827","
  <p style=""font-size: 40px;"">nuder</p>
  <p style=""font-size: 16px;"">J = YES &nbsp;&nbsp;&nbsp; F = NO</p>
","f","html-keyboard-response","25","2.1.0","46209","J=YES, F=NO","zv5pmevl62","2","75","85","65","","","","","","lextale","false","false","","","","","","","",""
"662","
  <p style=""font-size: 40px;"">pillow</p>
  <p style=""font-size: 16px;"">J = YES &nbsp;&nbsp;&nbsp; F = NO</p>
","j","html-keyboard-response","26","2.1.0","46872","J=YES, F=NO","zv5pmevl62","2","75","85","65","","","","","","lextale","true","false","","","","","","","",""
"1526","
  <p style=""font-size: 40px;"">shumble</p>
  <p style=""font-size: 16px;"">J = YES &nbsp;&nbsp;&nbsp; F = NO</p>
","j","html-keyboard-response","27","2.1.0","48399","J=YES, F=NO","zv5pmevl62","2","75","85","65","","","","","","lextale","false","false","","","","","","","",""
"1006","
  <p style=""font-size: 40px;"">thirst</p>
  <p style=""font-size: 16px;"">J = YES &nbsp;&nbsp;&nbsp; F = NO</p>
","j","html-keyboard-response","28","2.1.0","49405","J=YES, F=NO","zv5pmevl62","2","75","85","65","","","","","","lextale","true","false","","","","","","","",""
"1131","
  <p style=""font-size: 40px;"">unsail</p>
  <p style=""font-size: 16px;"">J = YES &nbsp;&nbsp;&nbsp; F = NO</p>
","f","html-keyboard-response","29","2.1.0","50536","J=YES, F=NO","zv5pmevl62","2","75","85","65","","","","","","lextale","false","false","","","","","","","",""
"684","
  <p style=""font-size: 40px;"">rifle</p>
  <p style=""font-size: 16px;"">J = YES &nbsp;&nbsp;&nbsp; F = NO</p>
","j","html-keyboard-response","30","2.1.0","51221","J=YES, F=NO","zv5pmevl62","2","75","85","65","","","","","","lextale","true","false","","","","","","","",""
"1028","
  <p style=""font-size: 40px;"">mush</p>
  <p style=""font-size: 16px;"">J = YES &nbsp;&nbsp;&nbsp; F = NO</p>
","j","html-keyboard-response","31","2.1.0","52249","J=YES, F=NO","zv5pmevl62","2","75","85","65","","","","","","lextale","false","false","","","","","","","",""
"1135","
  <p style=""font-size: 40px;"">drench</p>
  <p style=""font-size: 16px;"">J = YES &nbsp;&nbsp;&nbsp; F = NO</p>
","j","html-keyboard-response","32","2.1.0","53385","J=YES, F=NO","zv5pmevl62","2","75","85","65","","","","","","lextale","true","false","","","","","","","",""
"827","
  <p style=""font-size: 40px;"">snirt</p>
  <p style=""font-size: 16px;"">J = YES &nbsp;&nbsp;&nbsp; F = NO</p>
","f","html-keyboard-response","33","2.1.0","54213","J=YES, F=NO","zv5pmevl62","2","75","85","65","","","","","","lextale","false","false","","","","","","","",""
"663","
  <p style=""font-size: 40px;"">bitter</p>
  <p style=""font-size: 16px;"">J = YES &nbsp;&nbsp;&nbsp; F = NO</p>
","j","html-keyboard-response","34","2.1.0","54876","J=YES, F=NO","zv5pmevl62","2","75","85","65","","","","","","lextale","true","false","","","","","","","",""
"871","
  <p style=""font-size: 40px;"">pliff</p>
  <p style=""font-size: 16px;"">J = YES &nbsp;&nbsp;&nbsp; F = NO</p>
","f","html-keyboard-response","35","2.1.0","55748","J=YES, F=NO","zv5pmevl62","2","75","85","65","","","","","","lextale","false","false","","","","","","","",""
"554","
  <p style=""font-size: 40px;"">tablet</p>
  <p style=""font-size: 16px;"">J = YES &nbsp;&nbsp;&nbsp; F = NO</p>
","j","html-keyboard-response","36","2.1.0","56302","J=YES, F=NO","zv5pmevl62","2","75","85","65","","","","","","lextale","true","false","","","","","","","",""
"680","
  <p style=""font-size: 40px;"">glimmer</p>
  <p style=""font-size: 16px;"">J = YES &nbsp;&nbsp;&nbsp; F = NO</p>
","j","html-keyboard-response","37","2.1.0","56983","J=YES, F=NO","zv5pmevl62","2","75","85","65","","","","","","lextale","true","false","","","","","","","",""
"680","
  <p style=""font-size: 40px;"">slink</p>
  <p style=""font-size: 16px;"">J = YES &nbsp;&nbsp;&nbsp; F = NO</p>
","j","html-keyboard-response","38","2.1.0","57663","J=YES, F=NO","zv5pmevl62","2","75","85","65","","","","","","lextale","true","false","","","","","","","",""
"963","
  <p style=""font-size: 40px;"">clever</p>
  <p style=""font-size: 16px;"">J = YES &nbsp;&nbsp;&nbsp; F = NO</p>
","j","html-keyboard-response","39","2.1.0","58627","J=YES, F=NO","zv5pmevl62","2","75","85","65","","","","","","lextale","true","false","","","","","","","",""
"1045","
  <p style=""font-size: 40px;"">grum</p>
  <p style=""font-size: 16px;"">J = YES &nbsp;&nbsp;&nbsp; F = NO</p>
","f","html-keyboard-response","40","2.1.0","59672","J=YES, F=NO","zv5pmevl62","2","75","85","65","","","","","","lextale","false","false","","","","","","","",""
"1269","
  <p style=""font-size: 40px;"">string</p>
  <p style=""font-size: 16px;"">J = YES &nbsp;&nbsp;&nbsp; F = NO</p>
","j","html-keyboard-response","41","2.1.0","60942","J=YES, F=NO","zv5pmevl62","2","75","85","65","","","","","","lextale","true","false","","","","","","","",""
"1500","
  <p style=""font-size: 40px;"">plim</p>
  <p style=""font-size: 16px;"">J = YES &nbsp;&nbsp;&nbsp; F = NO</p>
","f","html-keyboard-response","42","2.1.0","62443","J=YES, F=NO","zv5pmevl62","2","75","85","65","","","","","","lextale","false","false","","","","","","","",""
"620","
  <p style=""font-size: 40px;"">cable</p>
  <p style=""font-size: 16px;"">J = YES &nbsp;&nbsp;&nbsp; F = NO</p>
","j","html-keyboard-response","43","2.1.0","63063","J=YES, F=NO","zv5pmevl62","2","75","85","65","","","","","","lextale","true","false","","","","","","","",""
"702","
  <p style=""font-size: 40px;"">shrivel</p>
  <p style=""font-size: 16px;"">J = YES &nbsp;&nbsp;&nbsp; F = NO</p>
","j","html-keyboard-response","44","2.1.0","63765","J=YES, F=NO","zv5pmevl62","2","75","85","65","","","","","","lextale","true","false","","","","","","","",""
"1851","
  <p style=""font-size: 40px;"">tarnish</p>
  <p style=""font-size: 16px;"">J = YES &nbsp;&nbsp;&nbsp; F = NO</p>
","j","html-keyboard-response","45","2.1.0","65617","J=YES, F=NO","zv5pmevl62","2","75","85","65","","","","","","lextale","true","false","","","","","","","",""
"786","
  <p style=""font-size: 40px;"">blim</p>
  <p style=""font-size: 16px;"">J = YES &nbsp;&nbsp;&nbsp; F = NO</p>
","f","html-keyboard-response","46","2.1.0","66403","J=YES, F=NO","zv5pmevl62","2","75","85","65","","","","","","lextale","false","false","","","","","","","",""
"1314","
  <p style=""font-size: 40px;"">stifle</p>
  <p style=""font-size: 16px;"">J = YES &nbsp;&nbsp;&nbsp; F = NO</p>
","j","html-keyboard-response","47","2.1.0","67717","J=YES, F=NO","zv5pmevl62","2","75","85","65","","","","","","lextale","true","false","","","","","","","",""
"1522","
  <p style=""font-size: 40px;"">bint</p>
  <p style=""font-size: 16px;"">J = YES &nbsp;&nbsp;&nbsp; F = NO</p>
","f","html-keyboard-response","48","2.1.0","69240","J=YES, F=NO","zv5pmevl62","2","75","85","65","","","","","","lextale","false","false","","","","","","","",""
"770","
  <p style=""font-size: 40px;"">purple</p>
  <p style=""font-size: 16px;"">J = YES &nbsp;&nbsp;&nbsp; F = NO</p>
","j","html-keyboard-response","49","2.1.0","70011","J=YES, F=NO","zv5pmevl62","2","75","85","65","","","","","","lextale","true","false","","","","","","","",""
"789","
  <p style=""font-size: 40px;"">wriggle</p>
  <p style=""font-size: 16px;"">J = YES &nbsp;&nbsp;&nbsp; F = NO</p>
","j","html-keyboard-response","50","2.1.0","70800","J=YES, F=NO","zv5pmevl62","2","75","85","65","","","","","","lextale","true","false","","","","","","","",""
"615","
  <p style=""font-size: 40px;"">mangle</p>
  <p style=""font-size: 16px;"">J = YES &nbsp;&nbsp;&nbsp; F = NO</p>
","j","html-keyboard-response","51","2.1.0","71416","J=YES, F=NO","zv5pmevl62","2","75","85","65","","","","","","lextale","true","false","","","","","","","",""
"4624","
  <p style=""font-size: 40px;"">shramp</p>
  <p style=""font-size: 16px;"">J = YES &nbsp;&nbsp;&nbsp; F = NO</p>
","f","html-keyboard-response","52","2.1.0","76041","J=YES, F=NO","zv5pmevl62","2","75","85","65","","","","","","lextale","false","false","","","","","","","",""
"5653","
  <p style=""font-size: 40px;"">flirt</p>
  <p style=""font-size: 16px;"">J = YES &nbsp;&nbsp;&nbsp; F = NO</p>
","j","html-keyboard-response","53","2.1.0","81695","J=YES, F=NO","zv5pmevl62","2","75","85","65","","","","","","lextale","true","false","","","","","","","",""
"1261","
  <p style=""font-size: 40px;"">frip</p>
  <p style=""font-size: 16px;"">J = YES &nbsp;&nbsp;&nbsp; F = NO</p>
","f","html-keyboard-response","54","2.1.0","82956","J=YES, F=NO","zv5pmevl62","2","75","85","65","","","","","","lextale","false","false","","","","","","","",""
"1119","
  <p style=""font-size: 40px;"">tangle</p>
  <p style=""font-size: 16px;"">J = YES &nbsp;&nbsp;&nbsp; F = NO</p>
","j","html-keyboard-response","55","2.1.0","84075","J=YES, F=NO","zv5pmevl62","2","75","85","65","","","","","","lextale","true","false","","","","","","","",""
"614","
  <p style=""font-size: 40px;"">crumble</p>
  <p style=""font-size: 16px;"">J = YES &nbsp;&nbsp;&nbsp; F = NO</p>
","j","html-keyboard-response","56","2.1.0","84690","J=YES, F=NO","zv5pmevl62","2","75","85","65","","","","","","lextale","true","false","","","","","","","",""
"594","
  <p style=""font-size: 40px;"">wrinkle</p>
  <p style=""font-size: 16px;"">J = YES &nbsp;&nbsp;&nbsp; F = NO</p>
","j","html-keyboard-response","57","2.1.0","85285","J=YES, F=NO","zv5pmevl62","2","75","85","65","","","","","","lextale","true","false","","","","","","","",""
"1260","
  <p style=""font-size: 40px;"">slumb</p>
  <p style=""font-size: 16px;"">J = YES &nbsp;&nbsp;&nbsp; F = NO</p>
","f","html-keyboard-response","58","2.1.0","86546","J=YES, F=NO","zv5pmevl62","2","75","85","65","","","","","","lextale","false","false","","","","","","","",""
"879","
  <p style=""font-size: 40px;"">jungle</p>
  <p style=""font-size: 16px;"">J = YES &nbsp;&nbsp;&nbsp; F = NO</p>
","j","html-keyboard-response","59","2.1.0","87426","J=YES, F=NO","zv5pmevl62","2","75","85","65","","","","","","lextale","true","false","","","","","","","",""
"875","
  <p style=""font-size: 40px;"">frolick</p>
  <p style=""font-size: 16px;"">J = YES &nbsp;&nbsp;&nbsp; F = NO</p>
","j","html-keyboard-response","60","2.1.0","88302","J=YES, F=NO","zv5pmevl62","2","75","85","65","","","","","","lextale","false","false","","","","","","","",""
"2196","
      <h2>LexTALE Test Completed</h2>
      <p>Your LexTALE vocabulary score is: <strong>75%</strong></p>
      <p>Press any key to continue.</p>
    "," ","html-keyboard-response","61","2.1.0","90498","J=YES, F=NO","zv5pmevl62","2","75","85","65","","","","","","","","","","","","","","","",""
"18686","
    <div style=""max-width: 800px; margin: auto; text-align: left;"">
      <h2>Break Time</h2>
      <p>You have completed the first part of the study.</p>
      <p>You may take a short <strong>30-second break</strong> before continuing.</p>
      <p>When you’re ready, press any key to continue to the final task.</p>
    </div>
  "," ","html-keyboard-response","62","2.1.0","109185","J=YES, F=NO","zv5pmevl62","2","75","85","65","","","","","","","","","","","","","","","",""
"13527","
    <div style=""max-width: 800px; margin: auto; text-align: left;"">
      <h2>Part 2: Lexical Decision Task</h2>
      <p>You will now begin the second part of the study.</p>
      <p>Each trial will follow this sequence:</p>
      <ul>
        <li>A fixation cross (+) appears at the center of the screen.</li>
        <li>You will hear a short beep followed by a spoken word.</li>
        <li>A written word will appear briefly on the screen.</li>
      </ul>
      <p>Your task is to judge whether the <strong>written word</strong> is a real English word.</p>
      <p style=""margin-top: 1em;""><strong>Key responses:</strong></p>
      <ul>
        <li><strong>J</strong> = YES (real English word)</li>
        <li><strong>F</strong> = NO (not a real English word)</li>
      </ul>
      <p>Please respond as quickly and accurately as you can.</p>
      <p style=""margin-top: 2em;"">Press any key to continue.</p>
    </div>
  "," ","html-keyboard-response","63","2.1.0","122713","J=YES, F=NO","zv5pmevl62","2","75","85","65","","","","","","","","","","","","","","","",""
"6388","
    <div style=""max-width: 800px; margin: auto; text-align: left;"">
      <h2>Before You Begin</h2>
      <p>Make sure your sound is turned on.</p>
      <p>You will hear audio during each trial, but your decision should be based only on the <strong>written word</strong> you see on the screen.</p>
      <p><strong>Reminder:</strong></p>
      <ul>
        <li><strong>J</strong> = YES (real English word)</li>
        <li><strong>F</strong> = NO (not a real English word)</li>
      </ul>
      <p style=""margin-top: 2em;"">Press any key when you are ready to begin.</p>
    </div>
  "," ","html-keyboard-response","64","2.1.0","129102","J=YES, F=NO","zv5pmevl62","2","75","85","65","","","","","","","","","","","","","","","",""
"2655","
    <div style=""max-width: 800px; margin: auto; text-align: left;"">
      <h2>Part 2: Practice Trials</h2>
      <p>You will now complete a few <strong>practice trials</strong> to get familiar with the task.</p>
      <p>These trials are <strong>not scored</strong> and are only to help you get used to the format.</p>
      <p style=""margin-top: 2em;"">Press any key to begin.</p>
    </div>
  "," ","html-keyboard-response","65","2.1.0","131757","J=YES, F=NO","zv5pmevl62","2","75","85","65","","","","","","","","","","","","","","","",""
"1613","<p>Starting practice block 1 of 2. Press any key to continue.</p>"," ","html-keyboard-response","66","2.1.0","133371","J=YES, F=NO","zv5pmevl62","2","75","85","65","","","","","","","","","","","","","","","",""
"null","<p style=""font-size: 50px;"">+</p>","null","html-keyboard-response","67","2.1.0","133682","J=YES, F=NO","zv5pmevl62","2","75","85","65","","","","","","","","","","","","","","","",""
"null","audio/beep-329314.mp3","null","audio-keyboard-response","68","2.1.0","135209","J=YES, F=NO","zv5pmevl62","2","75","85","65","","","","","","","","","","","","","","","",""
"null","audio/window1.wav","null","audio-keyboard-response","69","2.1.0","135839","J=YES, F=NO","zv5pmevl62","2","75","85","65","","","","","","","","","","","","","","","",""
"null","
          <p id=""word"" style=""font-size: 40px;"">toss</p>
          <p style=""font-size: 16px;"">J = YES &nbsp;&nbsp;&nbsp; F = NO</p>
        ","null","html-keyboard-response","70","2.1.0","137347","J=YES, F=NO","zv5pmevl62","2","75","85","65","","","","","","","","","toss","window1","filler","filler","j","false","",""
"null","<p style=""font-size: 50px;"">+</p>","null","html-keyboard-response","71","2.1.0","137659","J=YES, F=NO","zv5pmevl62","2","75","85","65","","","","","","","","","","","","","","","",""
"null","audio/beep-329314.mp3","null","audio-keyboard-response","72","2.1.0","139189","J=YES, F=NO","zv5pmevl62","2","75","85","65","","","","","","","","","","","","","","","",""
"null","audio/birth1.wav","null","audio-keyboard-response","73","2.1.0","139759","J=YES, F=NO","zv5pmevl62","2","75","85","65","","","","","","","","","","","","","","","",""
"1041","
          <p id=""word"" style=""font-size: 40px;"">peel</p>
          <p style=""font-size: 16px;"">J = YES &nbsp;&nbsp;&nbsp; F = NO</p>
        ","j","html-keyboard-response","74","2.1.0","140801","J=YES, F=NO","zv5pmevl62","2","75","85","65","","","","","","","","","peel","birth1","filler","filler","j","true","",""
"null","<p style=""font-size: 50px;"">+</p>","null","html-keyboard-response","75","2.1.0","141103","J=YES, F=NO","zv5pmevl62","2","75","85","65","","","","","","","","","","","","","","","",""
"null","audio/beep-329314.mp3","null","audio-keyboard-response","76","2.1.0","142629","J=YES, F=NO","zv5pmevl62","2","75","85","65","","","","","","","","","","","","","","","",""
"null","audio/planet1.wav","null","audio-keyboard-response","77","2.1.0","143259","J=YES, F=NO","zv5pmevl62","2","75","85","65","","","","","","","","","","","","","","","",""
"696","
          <p id=""word"" style=""font-size: 40px;"">cratched</p>
          <p style=""font-size: 16px;"">J = YES &nbsp;&nbsp;&nbsp; F = NO</p>
        ","j","html-keyboard-response","78","2.1.0","143955","J=YES, F=NO","zv5pmevl62","2","75","85","65","","","","","","","","","cratched","planet1","pseudoword","pseudoword","f","false","",""
"null","<p style=""font-size: 50px;"">+</p>","null","html-keyboard-response","79","2.1.0","144259","J=YES, F=NO","zv5pmevl62","2","75","85","65","","","","","","","","","","","","","","","",""
"null","audio/beep-329314.mp3","null","audio-keyboard-response","80","2.1.0","145789","J=YES, F=NO","zv5pmevl62","2","75","85","65","","","","","","","","","","","","","","","",""
"null","audio/cinema1.wav","null","audio-keyboard-response","81","2.1.0","146439","J=YES, F=NO","zv5pmevl62","2","75","85","65","","","","","","","","","","","","","","","",""
"625","
          <p id=""word"" style=""font-size: 40px;"">murple</p>
          <p style=""font-size: 16px;"">J = YES &nbsp;&nbsp;&nbsp; F = NO</p>
        ","j","html-keyboard-response","82","2.1.0","147065","J=YES, F=NO","zv5pmevl62","2","75","85","65","","","","","","","","","murple","cinema1","pseudoword","pseudoword","f","false","",""
"null","<p style=""font-size: 50px;"">+</p>","null","html-keyboard-response","83","2.1.0","147381","J=YES, F=NO","zv5pmevl62","2","75","85","65","","","","","","","","","","","","","","","",""
"null","audio/beep-329314.mp3","null","audio-keyboard-response","84","2.1.0","148909","J=YES, F=NO","zv5pmevl62","2","75","85","65","","","","","","","","","","","","","","","",""
"null","audio/alarm1.wav","null","audio-keyboard-response","85","2.1.0","149519","J=YES, F=NO","zv5pmevl62","2","75","85","65","","","","","","","","","","","","","","","",""
"933","
          <p id=""word"" style=""font-size: 40px;"">swetp</p>
          <p style=""font-size: 16px;"">J = YES &nbsp;&nbsp;&nbsp; F = NO</p>
        ","f","html-keyboard-response","86","2.1.0","150453","J=YES, F=NO","zv5pmevl62","2","75","85","65","","","","","","","","","swetp","alarm1","pseudoword","pseudoword","f","true","",""
"null","<p style=""font-size: 50px;"">+</p>","null","html-keyboard-response","87","2.1.0","150763","J=YES, F=NO","zv5pmevl62","2","75","85","65","","","","","","","","","","","","","","","",""
"null","audio/beep-329314.mp3","null","audio-keyboard-response","88","2.1.0","152289","J=YES, F=NO","zv5pmevl62","2","75","85","65","","","","","","","","","","","","","","","",""
"null","audio/terrain.wav","null","audio-keyboard-response","89","2.1.0","152919","J=YES, F=NO","zv5pmevl62","2","75","85","65","","","","","","","","","","","","","","","",""
"670","
          <p id=""word"" style=""font-size: 40px;"">twist</p>
          <p style=""font-size: 16px;"">J = YES &nbsp;&nbsp;&nbsp; F = NO</p>
        ","j","html-keyboard-response","90","2.1.0","153590","J=YES, F=NO","zv5pmevl62","2","75","85","65","","","","","","","","","twist","terrain","filler","filler","j","true","",""
"null","<p style=""font-size: 50px;"">+</p>","null","html-keyboard-response","91","2.1.0","153891","J=YES, F=NO","zv5pmevl62","2","75","85","65","","","","","","","","","","","","","","","",""
"null","audio/beep-329314.mp3","null","audio-keyboard-response","92","2.1.0","155429","J=YES, F=NO","zv5pmevl62","2","75","85","65","","","","","","","","","","","","","","","",""
"null","audio/account1.wav","null","audio-keyboard-response","93","2.1.0","156139","J=YES, F=NO","zv5pmevl62","2","75","85","65","","","","","","","","","","","","","","","",""
"605","
          <p id=""word"" style=""font-size: 40px;"">paint</p>
          <p style=""font-size: 16px;"">J = YES &nbsp;&nbsp;&nbsp; F = NO</p>
        ","j","html-keyboard-response","94","2.1.0","156745","J=YES, F=NO","zv5pmevl62","2","75","85","65","","","","","","","","","paint","account1","filler","filler","j","true","",""
"null","<p style=""font-size: 50px;"">+</p>","null","html-keyboard-response","95","2.1.0","157058","J=YES, F=NO","zv5pmevl62","2","75","85","65","","","","","","","","","","","","","","","",""
"null","audio/beep-329314.mp3","null","audio-keyboard-response","96","2.1.0","158589","J=YES, F=NO","zv5pmevl62","2","75","85","65","","","","","","","","","","","","","","","",""
"null","audio/plot1.wav","null","audio-keyboard-response","97","2.1.0","159160","J=YES, F=NO","zv5pmevl62","2","75","85","65","","","","","","","","","","","","","","","",""
"539","
          <p id=""word"" style=""font-size: 40px;"">glenter</p>
          <p style=""font-size: 16px;"">J = YES &nbsp;&nbsp;&nbsp; F = NO</p>
        ","f","html-keyboard-response","98","2.1.0","159700","J=YES, F=NO","zv5pmevl62","2","75","85","65","","","","","","","","","glenter","plot1","pseudoword","pseudoword","f","true","",""
"null","<p style=""font-size: 50px;"">+</p>","null","html-keyboard-response","99","2.1.0","160007","J=YES, F=NO","zv5pmevl62","2","75","85","65","","","","","","","","","","","","","","","",""
"null","audio/beep-329314.mp3","null","audio-keyboard-response","100","2.1.0","161529","J=YES, F=NO","zv5pmevl62","2","75","85","65","","","","","","","","","","","","","","","",""
"null","audio/bridge.wav","null","audio-keyboard-response","101","2.1.0","162059","J=YES, F=NO","zv5pmevl62","2","75","85","65","","","","","","","","","","","","","","","",""
"603","
          <p id=""word"" style=""font-size: 40px;"">crack</p>
          <p style=""font-size: 16px;"">J = YES &nbsp;&nbsp;&nbsp; F = NO</p>
        ","j","html-keyboard-response","102","2.1.0","162663","J=YES, F=NO","zv5pmevl62","2","75","85","65","","","","","","","","","crack","bridge","filler","filler","j","true","",""
"null","<p style=""font-size: 50px;"">+</p>","null","html-keyboard-response","103","2.1.0","162965","J=YES, F=NO","zv5pmevl62","2","75","85","65","","","","","","","","","","","","","","","",""
"null","audio/beep-329314.mp3","null","audio-keyboard-response","104","2.1.0","164489","J=YES, F=NO","zv5pmevl62","2","75","85","65","","","","","","","","","","","","","","","",""
"null","audio/sugar1.wav","null","audio-keyboard-response","105","2.1.0","165000","J=YES, F=NO","zv5pmevl62","2","75","85","65","","","","","","","","","","","","","","","",""
"661","
          <p id=""word"" style=""font-size: 40px;"">glung</p>
          <p style=""font-size: 16px;"">J = YES &nbsp;&nbsp;&nbsp; F = NO</p>
        ","f","html-keyboard-response","106","2.1.0","165661","J=YES, F=NO","zv5pmevl62","2","75","85","65","","","","","","","","","glung","sugar1","pseudoword","pseudoword","f","true","",""
"null","<p style=""font-size: 50px;"">+</p>","null","html-keyboard-response","107","2.1.0","165977","J=YES, F=NO","zv5pmevl62","2","75","85","65","","","","","","","","","","","","","","","",""
"null","audio/beep-329314.mp3","null","audio-keyboard-response","108","2.1.0","167509","J=YES, F=NO","zv5pmevl62","2","75","85","65","","","","","","","","","","","","","","","",""
"null","audio/weight1.wav","null","audio-keyboard-response","109","2.1.0","168079","J=YES, F=NO","zv5pmevl62","2","75","85","65","","","","","","","","","","","","","","","",""
"627","
          <p id=""word"" style=""font-size: 40px;"">crimsh</p>
          <p style=""font-size: 16px;"">J = YES &nbsp;&nbsp;&nbsp; F = NO</p>
        ","f","html-keyboard-response","110","2.1.0","168707","J=YES, F=NO","zv5pmevl62","2","75","85","65","","","","","","","","","crimsh","weight1","pseudoword","pseudoword","f","true","",""
"null","<p style=""font-size: 50px;"">+</p>","null","html-keyboard-response","111","2.1.0","169021","J=YES, F=NO","zv5pmevl62","2","75","85","65","","","","","","","","","","","","","","","",""
"null","audio/beep-329314.mp3","null","audio-keyboard-response","112","2.1.0","170549","J=YES, F=NO","zv5pmevl62","2","75","85","65","","","","","","","","","","","","","","","",""
"null","audio/beach1.wav","null","audio-keyboard-response","113","2.1.0","171159","J=YES, F=NO","zv5pmevl62","2","75","85","65","","","","","","","","","","","","","","","",""
"553","
          <p id=""word"" style=""font-size: 40px;"">drive</p>
          <p style=""font-size: 16px;"">J = YES &nbsp;&nbsp;&nbsp; F = NO</p>
        ","j","html-keyboard-response","114","2.1.0","171713","J=YES, F=NO","zv5pmevl62","2","75","85","65","","","","","","","","","drive","beach1","filler","filler","j","true","",""
"1915","<p>Starting practice block 2 of 2. Press any key to continue.</p>"," ","html-keyboard-response","115","2.1.0","173628","J=YES, F=NO","zv5pmevl62","2","75","85","65","","","","","","","","","","","","","","","",""
"null","<p style=""font-size: 50px;"">+</p>","null","html-keyboard-response","116","2.1.0","173937","J=YES, F=NO","zv5pmevl62","2","75","85","65","","","","","","","","","","","","","","","",""
"null","audio/beep-329314.mp3","null","audio-keyboard-response","117","2.1.0","175470","J=YES, F=NO","zv5pmevl62","2","75","85","65","","","","","","","","","","","","","","","",""
"null","audio/belief.wav","null","audio-keyboard-response","118","2.1.0","176139","J=YES, F=NO","zv5pmevl62","2","75","85","65","","","","","","","","","","","","","","","",""
"492","
          <p id=""word"" style=""font-size: 40px;"">read</p>
          <p style=""font-size: 16px;"">J = YES &nbsp;&nbsp;&nbsp; F = NO</p>
        ","j","html-keyboard-response","119","2.1.0","176631","J=YES, F=NO","zv5pmevl62","2","75","85","65","","","","","","","","","read","belief","filler","filler","j","true","",""
"null","<p style=""font-size: 50px;"">+</p>","null","html-keyboard-response","120","2.1.0","176940","J=YES, F=NO","zv5pmevl62","2","75","85","65","","","","","","","","","","","","","","","",""
"null","audio/beep-329314.mp3","null","audio-keyboard-response","121","2.1.0","178469","J=YES, F=NO","zv5pmevl62","2","75","85","65","","","","","","","","","","","","","","","",""
"null","audio/baby.wav","null","audio-keyboard-response","122","2.1.0","178979","J=YES, F=NO","zv5pmevl62","2","75","85","65","","","","","","","","","","","","","","","",""
"568","
          <p id=""word"" style=""font-size: 40px;"">lift</p>
          <p style=""font-size: 16px;"">J = YES &nbsp;&nbsp;&nbsp; F = NO</p>
        ","j","html-keyboard-response","123","2.1.0","179548","J=YES, F=NO","zv5pmevl62","2","75","85","65","","","","","","","","","lift","baby","filler","filler","j","true","",""
"null","<p style=""font-size: 50px;"">+</p>","null","html-keyboard-response","124","2.1.0","179860","J=YES, F=NO","zv5pmevl62","2","75","85","65","","","","","","","","","","","","","","","",""
"null","audio/beep-329314.mp3","null","audio-keyboard-response","125","2.1.0","181389","J=YES, F=NO","zv5pmevl62","2","75","85","65","","","","","","","","","","","","","","","",""
"null","audio/gossip1.wav","null","audio-keyboard-response","126","2.1.0","182039","J=YES, F=NO","zv5pmevl62","2","75","85","65","","","","","","","","","","","","","","","",""
"570","
          <p id=""word"" style=""font-size: 40px;"">camerish</p>
          <p style=""font-size: 16px;"">J = YES &nbsp;&nbsp;&nbsp; F = NO</p>
        ","f","html-keyboard-response","127","2.1.0","182610","J=YES, F=NO","zv5pmevl62","2","75","85","65","","","","","","","","","camerish","gossip1","pseudoword","pseudoword","f","true","",""
"null","<p style=""font-size: 50px;"">+</p>","null","html-keyboard-response","128","2.1.0","182926","J=YES, F=NO","zv5pmevl62","2","75","85","65","","","","","","","","","","","","","","","",""
"null","audio/beep-329314.mp3","null","audio-keyboard-response","129","2.1.0","184449","J=YES, F=NO","zv5pmevl62","2","75","85","65","","","","","","","","","","","","","","","",""
"null","audio/foe1.wav","null","audio-keyboard-response","130","2.1.0","184999","J=YES, F=NO","zv5pmevl62","2","75","85","65","","","","","","","","","","","","","","","",""
"938","
          <p id=""word"" style=""font-size: 40px;"">creth</p>
          <p style=""font-size: 16px;"">J = YES &nbsp;&nbsp;&nbsp; F = NO</p>
        ","f","html-keyboard-response","131","2.1.0","185938","J=YES, F=NO","zv5pmevl62","2","75","85","65","","","","","","","","","creth","foe1","pseudoword","pseudoword","f","true","",""
"null","<p style=""font-size: 50px;"">+</p>","null","html-keyboard-response","132","2.1.0","186241","J=YES, F=NO","zv5pmevl62","2","75","85","65","","","","","","","","","","","","","","","",""
"null","audio/beep-329314.mp3","null","audio-keyboard-response","133","2.1.0","187769","J=YES, F=NO","zv5pmevl62","2","75","85","65","","","","","","","","","","","","","","","",""
"null","audio/key1.wav","null","audio-keyboard-response","134","2.1.0","188199","J=YES, F=NO","zv5pmevl62","2","75","85","65","","","","","","","","","","","","","","","",""
"719","
          <p id=""word"" style=""font-size: 40px;"">sminsh</p>
          <p style=""font-size: 16px;"">J = YES &nbsp;&nbsp;&nbsp; F = NO</p>
        ","f","html-keyboard-response","135","2.1.0","188919","J=YES, F=NO","zv5pmevl62","2","75","85","65","","","","","","","","","sminsh","key1","pseudoword","pseudoword","f","true","",""
"null","<p style=""font-size: 50px;"">+</p>","null","html-keyboard-response","136","2.1.0","189226","J=YES, F=NO","zv5pmevl62","2","75","85","65","","","","","","","","","","","","","","","",""
"null","audio/beep-329314.mp3","null","audio-keyboard-response","137","2.1.0","190749","J=YES, F=NO","zv5pmevl62","2","75","85","65","","","","","","","","","","","","","","","",""
"null","audio/butter1.wav","null","audio-keyboard-response","138","2.1.0","191219","J=YES, F=NO","zv5pmevl62","2","75","85","65","","","","","","","","","","","","","","","",""
"661","
          <p id=""word"" style=""font-size: 40px;"">chew</p>
          <p style=""font-size: 16px;"">J = YES &nbsp;&nbsp;&nbsp; F = NO</p>
        ","j","html-keyboard-response","139","2.1.0","191881","J=YES, F=NO","zv5pmevl62","2","75","85","65","","","","","","","","","chew","butter1","filler","filler","j","true","",""
"null","<p style=""font-size: 50px;"">+</p>","null","html-keyboard-response","140","2.1.0","192183","J=YES, F=NO","zv5pmevl62","2","75","85","65","","","","","","","","","","","","","","","",""
"null","audio/beep-329314.mp3","null","audio-keyboard-response","141","2.1.0","193709","J=YES, F=NO","zv5pmevl62","2","75","85","65","","","","","","","","","","","","","","","",""
"null","audio/noise1.wav","null","audio-keyboard-response","142","2.1.0","194359","J=YES, F=NO","zv5pmevl62","2","75","85","65","","","","","","","","","","","","","","","",""
"889","
          <p id=""word"" style=""font-size: 40px;"">slintered</p>
          <p style=""font-size: 16px;"">J = YES &nbsp;&nbsp;&nbsp; F = NO</p>
        ","f","html-keyboard-response","143","2.1.0","195249","J=YES, F=NO","zv5pmevl62","2","75","85","65","","","","","","","","","slintered","noise1","pseudoword","pseudoword","f","true","",""
"null","<p style=""font-size: 50px;"">+</p>","null","html-keyboard-response","144","2.1.0","195563","J=YES, F=NO","zv5pmevl62","2","75","85","65","","","","","","","","","","","","","","","",""
"null","audio/beep-329314.mp3","null","audio-keyboard-response","145","2.1.0","197089","J=YES, F=NO","zv5pmevl62","2","75","85","65","","","","","","","","","","","","","","","",""
"null","audio/kettle1.wav","null","audio-keyboard-response","146","2.1.0","197579","J=YES, F=NO","zv5pmevl62","2","75","85","65","","","","","","","","","","","","","","","",""
"719","
          <p id=""word"" style=""font-size: 40px;"">wrap</p>
          <p style=""font-size: 16px;"">J = YES &nbsp;&nbsp;&nbsp; F = NO</p>
        ","j","html-keyboard-response","147","2.1.0","198299","J=YES, F=NO","zv5pmevl62","2","75","85","65","","","","","","","","","wrap","kettle1","filler","filler","j","true","",""
"null","<p style=""font-size: 50px;"">+</p>","null","html-keyboard-response","148","2.1.0","198613","J=YES, F=NO","zv5pmevl62","2","75","85","65","","","","","","","","","","","","","","","",""
"null","audio/beep-329314.mp3","null","audio-keyboard-response","149","2.1.0","200149","J=YES, F=NO","zv5pmevl62","2","75","85","65","","","","","","","","","","","","","","","",""
"null","audio/bomb1.wav","null","audio-keyboard-response","150","2.1.0","200539","J=YES, F=NO","zv5pmevl62","2","75","85","65","","","","","","","","","","","","","","","",""
"717","
          <p id=""word"" style=""font-size: 40px;"">clean</p>
          <p style=""font-size: 16px;"">J = YES &nbsp;&nbsp;&nbsp; F = NO</p>
        ","j","html-keyboard-response","151","2.1.0","201257","J=YES, F=NO","zv5pmevl62","2","75","85","65","","","","","","","","","clean","bomb1","filler","filler","j","true","",""
"null","<p style=""font-size: 50px;"">+</p>","null","html-keyboard-response","152","2.1.0","201571","J=YES, F=NO","zv5pmevl62","2","75","85","65","","","","","","","","","","","","","","","",""
"null","audio/beep-329314.mp3","null","audio-keyboard-response","153","2.1.0","203109","J=YES, F=NO","zv5pmevl62","2","75","85","65","","","","","","","","","","","","","","","",""
"null","audio/battle1.wav","null","audio-keyboard-response","154","2.1.0","203599","J=YES, F=NO","zv5pmevl62","2","75","85","65","","","","","","","","","","","","","","","",""
"618","
          <p id=""word"" style=""font-size: 40px;"">boil</p>
          <p style=""font-size: 16px;"">J = YES &nbsp;&nbsp;&nbsp; F = NO</p>
        ","j","html-keyboard-response","155","2.1.0","204218","J=YES, F=NO","zv5pmevl62","2","75","85","65","","","","","","","","","boil","battle1","filler","filler","j","true","",""
"null","<p style=""font-size: 50px;"">+</p>","null","html-keyboard-response","156","2.1.0","204521","J=YES, F=NO","zv5pmevl62","2","75","85","65","","","","","","","","","","","","","","","",""
"null","audio/beep-329314.mp3","null","audio-keyboard-response","157","2.1.0","206049","J=YES, F=NO","zv5pmevl62","2","75","85","65","","","","","","","","","","","","","","","",""
"null","audio/prisoner.wav","null","audio-keyboard-response","158","2.1.0","206579","J=YES, F=NO","zv5pmevl62","2","75","85","65","","","","","","","","","","","","","","","",""
"988","
          <p id=""word"" style=""font-size: 40px;"">egotian</p>
          <p style=""font-size: 16px;"">J = YES &nbsp;&nbsp;&nbsp; F = NO</p>
        ","j","html-keyboard-response","159","2.1.0","207568","J=YES, F=NO","zv5pmevl62","2","75","85","65","","","","","","","","","egotian","prisoner","pseudoword","pseudoword","f","false","",""
"null","<p style=""font-size: 50px;"">+</p>","null","html-keyboard-response","160","2.1.0","207882","J=YES, F=NO","zv5pmevl62","2","75","85","65","","","","","","","","","","","","","","","",""
"null","audio/beep-329314.mp3","null","audio-keyboard-response","161","2.1.0","209409","J=YES, F=NO","zv5pmevl62","2","75","85","65","","","","","","","","","","","","","","","",""
"null","audio/emotion.wav","null","audio-keyboard-response","162","2.1.0","210099","J=YES, F=NO","zv5pmevl62","2","75","85","65","","","","","","","","","","","","","","","",""
"1053","
          <p id=""word"" style=""font-size: 40px;"">devering</p>
          <p style=""font-size: 16px;"">J = YES &nbsp;&nbsp;&nbsp; F = NO</p>
        ","f","html-keyboard-response","163","2.1.0","211153","J=YES, F=NO","zv5pmevl62","2","75","85","65","","","","","","","","","devering","emotion","pseudoword","pseudoword","f","true","",""
"21886","
    <div style=""max-width: 800px; margin: auto; text-align: left;"">
      <h2>Part 2: Main Trials</h2>
      <p>Great job on the practice trials!</p>
      <p>You will now begin the <strong>main set of trials</strong>.</p>
      <p>Remember your key assignments:</p>
      <ul>
        <li><strong>J</strong> = YES (real English word)</li>
        <li><strong>F</strong> = NO (not a real English word)</li>
      </ul>
      <p>Try to respond as <strong>quickly and accurately</strong> as possible.</p>
      <p style=""margin-top: 2em;"">Press any key to begin the main trials.</p>
    </div>
  "," ","html-keyboard-response","164","2.1.0","233040","J=YES, F=NO","zv5pmevl62","2","75","85","65","","","","","","","","","","","","","","","",""
"1939","<p>Starting main block 1 of 8. Press any key to continue.</p>"," ","html-keyboard-response","165","2.1.0","234980","J=YES, F=NO","zv5pmevl62","2","75","85","65","","","","","","","","","","","","","","","",""
"null","<p style=""font-size: 50px;"">+</p>","null","html-keyboard-response","166","2.1.0","235283","J=YES, F=NO","zv5pmevl62","2","75","85","65","","","","","","","","","","","","","","","",""
"null","audio/beep-329314.mp3","null","audio-keyboard-response","167","2.1.0","236805","J=YES, F=NO","zv5pmevl62","2","75","85","65","","","","","","","","","","","","","","","",""
"null","audio/dome.wav","null","audio-keyboard-response","168","2.1.0","237234","J=YES, F=NO","zv5pmevl62","2","75","85","65","","","","","","","","","","","","","","","",""
"680","
          <p id=""word"" style=""font-size: 40px;"">scrupliness</p>
          <p style=""font-size: 16px;"">J = YES &nbsp;&nbsp;&nbsp; F = NO</p>
        ","f","html-keyboard-response","169","2.1.0","237915","J=YES, F=NO","zv5pmevl62","2","75","85","65","","","","","","","","","scrupliness","dome","pseudoword","pseudoword","f","true","",""
"null","<p style=""font-size: 50px;"">+</p>","null","html-keyboard-response","170","2.1.0","238226","J=YES, F=NO","zv5pmevl62","2","75","85","65","","","","","","","","","","","","","","","",""
"null","audio/beep-329314.mp3","null","audio-keyboard-response","171","2.1.0","239785","J=YES, F=NO","zv5pmevl62","2","75","85","65","","","","","","","","","","","","","","","",""
"null","audio/ankle1.wav","null","audio-keyboard-response","172","2.1.0","240333","J=YES, F=NO","zv5pmevl62","2","75","85","65","","","","","","","","","","","","","","","",""
"414","
          <p id=""word"" style=""font-size: 40px;"">hurt</p>
          <p style=""font-size: 16px;"">J = YES &nbsp;&nbsp;&nbsp; F = NO</p>
        ","j","html-keyboard-response","173","2.1.0","240748","J=YES, F=NO","zv5pmevl62","2","75","85","65","","","","","","","","","hurt","ankle1","literal","experimental","j","true","",""
"null","<p style=""font-size: 50px;"">+</p>","null","html-keyboard-response","174","2.1.0","241050","J=YES, F=NO","zv5pmevl62","2","75","85","65","","","","","","","","","","","","","","","",""
"null","audio/beep-329314.mp3","null","audio-keyboard-response","175","2.1.0","242605","J=YES, F=NO","zv5pmevl62","2","75","85","65","","","","","","","","","","","","","","","",""
"null","audio/burden.wav","null","audio-keyboard-response","176","2.1.0","243134","J=YES, F=NO","zv5pmevl62","2","75","85","65","","","","","","","","","","","","","","","",""
"547","
          <p id=""word"" style=""font-size: 40px;"">whotth</p>
          <p style=""font-size: 16px;"">J = YES &nbsp;&nbsp;&nbsp; F = NO</p>
        ","f","html-keyboard-response","177","2.1.0","243682","J=YES, F=NO","zv5pmevl62","2","75","85","65","","","","","","","","","whotth","burden","pseudoword","pseudoword","f","true","",""
"null","<p style=""font-size: 50px;"">+</p>","null","html-keyboard-response","178","2.1.0","243992","J=YES, F=NO","zv5pmevl62","2","75","85","65","","","","","","","","","","","","","","","",""
"null","audio/beep-329314.mp3","null","audio-keyboard-response","179","2.1.0","245545","J=YES, F=NO","zv5pmevl62","2","75","85","65","","","","","","","","","","","","","","","",""
"null","audio/pattern.wav","null","audio-keyboard-response","180","2.1.0","246073","J=YES, F=NO","zv5pmevl62","2","75","85","65","","","","","","","","","","","","","","","",""
"615","
          <p id=""word"" style=""font-size: 40px;"">tug</p>
          <p style=""font-size: 16px;"">J = YES &nbsp;&nbsp;&nbsp; F = NO</p>
        ","j","html-keyboard-response","181","2.1.0","246689","J=YES, F=NO","zv5pmevl62","2","75","85","65","","","","","","","","","tug","pattern","filler","filler","j","true","",""
"null","<p style=""font-size: 50px;"">+</p>","null","html-keyboard-response","182","2.1.0","247003","J=YES, F=NO","zv5pmevl62","2","75","85","65","","","","","","","","","","","","","","","",""
"null","audio/beep-329314.mp3","null","audio-keyboard-response","183","2.1.0","248546","J=YES, F=NO","zv5pmevl62","2","75","85","65","","","","","","","","","","","","","","","",""
"null","audio/smirk1.wav","null","audio-keyboard-response","184","2.1.0","249293","J=YES, F=NO","zv5pmevl62","2","75","85","65","","","","","","","","","","","","","","","",""
"614","
          <p id=""word"" style=""font-size: 40px;"">wipe</p>
          <p style=""font-size: 16px;"">J = YES &nbsp;&nbsp;&nbsp; F = NO</p>
        ","j","html-keyboard-response","185","2.1.0","249907","J=YES, F=NO","zv5pmevl62","2","75","85","65","","","","","","","","","wipe","smirk1","metaphor","experimental","j","true","",""
"null","<p style=""font-size: 50px;"">+</p>","null","html-keyboard-response","186","2.1.0","250214","J=YES, F=NO","zv5pmevl62","2","75","85","65","","","","","","","","","","","","","","","",""
"null","audio/beep-329314.mp3","null","audio-keyboard-response","187","2.1.0","251765","J=YES, F=NO","zv5pmevl62","2","75","85","65","","","","","","","","","","","","","","","",""
"null","audio/truth1.wav","null","audio-keyboard-response","188","2.1.0","252353","J=YES, F=NO","zv5pmevl62","2","75","85","65","","","","","","","","","","","","","","","",""
"553","
          <p id=""word"" style=""font-size: 40px;"">calitom</p>
          <p style=""font-size: 16px;"">J = YES &nbsp;&nbsp;&nbsp; F = NO</p>
        ","f","html-keyboard-response","189","2.1.0","252906","J=YES, F=NO","zv5pmevl62","2","75","85","65","","","","","","","","","calitom","truth1","pseudoword","pseudoword","f","true","",""
"null","<p style=""font-size: 50px;"">+</p>","null","html-keyboard-response","190","2.1.0","253210","J=YES, F=NO","zv5pmevl62","2","75","85","65","","","","","","","","","","","","","","","",""
"null","audio/beep-329314.mp3","null","audio-keyboard-response","191","2.1.0","254765","J=YES, F=NO","zv5pmevl62","2","75","85","65","","","","","","","","","","","","","","","",""
"null","audio/pain1.wav","null","audio-keyboard-response","192","2.1.0","255214","J=YES, F=NO","zv5pmevl62","2","75","85","65","","","","","","","","","","","","","","","",""
"521","
          <p id=""word"" style=""font-size: 40px;"">tritted</p>
          <p style=""font-size: 16px;"">J = YES &nbsp;&nbsp;&nbsp; F = NO</p>
        ","f","html-keyboard-response","193","2.1.0","255736","J=YES, F=NO","zv5pmevl62","2","75","85","65","","","","","","","","","tritted","pain1","pseudoword","pseudoword","f","true","",""
"null","<p style=""font-size: 50px;"">+</p>","null","html-keyboard-response","194","2.1.0","256046","J=YES, F=NO","zv5pmevl62","2","75","85","65","","","","","","","","","","","","","","","",""
"null","audio/beep-329314.mp3","null","audio-keyboard-response","195","2.1.0","257605","J=YES, F=NO","zv5pmevl62","2","75","85","65","","","","","","","","","","","","","","","",""
"null","audio/life1.wav","null","audio-keyboard-response","196","2.1.0","258193","J=YES, F=NO","zv5pmevl62","2","75","85","65","","","","","","","","","","","","","","","",""
"631","
          <p id=""word"" style=""font-size: 40px;"">flimch</p>
          <p style=""font-size: 16px;"">J = YES &nbsp;&nbsp;&nbsp; F = NO</p>
        ","f","html-keyboard-response","197","2.1.0","258825","J=YES, F=NO","zv5pmevl62","2","75","85","65","","","","","","","","","flimch","life1","pseudoword","pseudoword","f","true","",""
"null","<p style=""font-size: 50px;"">+</p>","null","html-keyboard-response","198","2.1.0","259141","J=YES, F=NO","zv5pmevl62","2","75","85","65","","","","","","","","","","","","","","","",""
"null","audio/beep-329314.mp3","null","audio-keyboard-response","199","2.1.0","260684","J=YES, F=NO","zv5pmevl62","2","75","85","65","","","","","","","","","","","","","","","",""
"null","audio/mouth1.wav","null","audio-keyboard-response","200","2.1.0","261274","J=YES, F=NO","zv5pmevl62","2","75","85","65","","","","","","","","","","","","","","","",""
"661","
          <p id=""word"" style=""font-size: 40px;"">spolial</p>
          <p style=""font-size: 16px;"">J = YES &nbsp;&nbsp;&nbsp; F = NO</p>
        ","f","html-keyboard-response","201","2.1.0","261936","J=YES, F=NO","zv5pmevl62","2","75","85","65","","","","","","","","","spolial","mouth1","pseudoword","pseudoword","f","true","",""
"null","<p style=""font-size: 50px;"">+</p>","null","html-keyboard-response","202","2.1.0","262241","J=YES, F=NO","zv5pmevl62","2","75","85","65","","","","","","","","","","","","","","","",""
"null","audio/beep-329314.mp3","null","audio-keyboard-response","203","2.1.0","263785","J=YES, F=NO","zv5pmevl62","2","75","85","65","","","","","","","","","","","","","","","",""
"null","audio/alarm1.wav","null","audio-keyboard-response","204","2.1.0","264374","J=YES, F=NO","zv5pmevl62","2","75","85","65","","","","","","","","","","","","","","","",""
"567","
          <p id=""word"" style=""font-size: 40px;"">lock</p>
          <p style=""font-size: 16px;"">J = YES &nbsp;&nbsp;&nbsp; F = NO</p>
        ","j","html-keyboard-response","205","2.1.0","264941","J=YES, F=NO","zv5pmevl62","2","75","85","65","","","","","","","","","lock","alarm1","filler","filler","j","true","",""
"null","<p style=""font-size: 50px;"">+</p>","null","html-keyboard-response","206","2.1.0","265248","J=YES, F=NO","zv5pmevl62","2","75","85","65","","","","","","","","","","","","","","","",""
"null","audio/beep-329314.mp3","null","audio-keyboard-response","207","2.1.0","266805","J=YES, F=NO","zv5pmevl62","2","75","85","65","","","","","","","","","","","","","","","",""
"null","audio/corpse1.wav","null","audio-keyboard-response","208","2.1.0","267473","J=YES, F=NO","zv5pmevl62","2","75","85","65","","","","","","","","","","","","","","","",""
"513","
          <p id=""word"" style=""font-size: 40px;"">bury</p>
          <p style=""font-size: 16px;"">J = YES &nbsp;&nbsp;&nbsp; F = NO</p>
        ","j","html-keyboard-response","209","2.1.0","267987","J=YES, F=NO","zv5pmevl62","2","75","85","65","","","","","","","","","bury","corpse1","literal","experimental","j","true","",""
"null","<p style=""font-size: 50px;"">+</p>","null","html-keyboard-response","210","2.1.0","268299","J=YES, F=NO","zv5pmevl62","2","75","85","65","","","","","","","","","","","","","","","",""
"null","audio/beep-329314.mp3","null","audio-keyboard-response","211","2.1.0","269845","J=YES, F=NO","zv5pmevl62","2","75","85","65","","","","","","","","","","","","","","","",""
"null","audio/van1.wav","null","audio-keyboard-response","212","2.1.0","270354","J=YES, F=NO","zv5pmevl62","2","75","85","65","","","","","","","","","","","","","","","",""
"504","
          <p id=""word"" style=""font-size: 40px;"">support</p>
          <p style=""font-size: 16px;"">J = YES &nbsp;&nbsp;&nbsp; F = NO</p>
        ","j","html-keyboard-response","213","2.1.0","270859","J=YES, F=NO","zv5pmevl62","2","75","85","65","","","","","","","","","support","van1","unrelated","experimental","j","true","",""
"null","<p style=""font-size: 50px;"">+</p>","null","html-keyboard-response","214","2.1.0","271164","J=YES, F=NO","zv5pmevl62","2","75","85","65","","","","","","","","","","","","","","","",""
"null","audio/beep-329314.mp3","null","audio-keyboard-response","215","2.1.0","272706","J=YES, F=NO","zv5pmevl62","2","75","85","65","","","","","","","","","","","","","","","",""
"null","audio/beach1.wav","null","audio-keyboard-response","216","2.1.0","273314","J=YES, F=NO","zv5pmevl62","2","75","85","65","","","","","","","","","","","","","","","",""
"699","
          <p id=""word"" style=""font-size: 40px;"">cut</p>
          <p style=""font-size: 16px;"">J = YES &nbsp;&nbsp;&nbsp; F = NO</p>
        ","j","html-keyboard-response","217","2.1.0","274014","J=YES, F=NO","zv5pmevl62","2","75","85","65","","","","","","","","","cut","beach1","unrelated","experimental","j","true","",""
"null","<p style=""font-size: 50px;"">+</p>","null","html-keyboard-response","218","2.1.0","274329","J=YES, F=NO","zv5pmevl62","2","75","85","65","","","","","","","","","","","","","","","",""
"null","audio/beep-329314.mp3","null","audio-keyboard-response","219","2.1.0","275884","J=YES, F=NO","zv5pmevl62","2","75","85","65","","","","","","","","","","","","","","","",""
"null","audio/vehicle1.wav","null","audio-keyboard-response","220","2.1.0","276553","J=YES, F=NO","zv5pmevl62","2","75","85","65","","","","","","","","","","","","","","","",""
"545","
          <p id=""word"" style=""font-size: 40px;"">dropt</p>
          <p style=""font-size: 16px;"">J = YES &nbsp;&nbsp;&nbsp; F = NO</p>
        ","f","html-keyboard-response","221","2.1.0","277099","J=YES, F=NO","zv5pmevl62","2","75","85","65","","","","","","","","","dropt","vehicle1","pseudoword","pseudoword","f","true","",""
"null","<p style=""font-size: 50px;"">+</p>","null","html-keyboard-response","222","2.1.0","277405","J=YES, F=NO","zv5pmevl62","2","75","85","65","","","","","","","","","","","","","","","",""
"null","audio/beep-329314.mp3","null","audio-keyboard-response","223","2.1.0","278965","J=YES, F=NO","zv5pmevl62","2","75","85","65","","","","","","","","","","","","","","","",""
"null","audio/flaw.wav","null","audio-keyboard-response","224","2.1.0","279634","J=YES, F=NO","zv5pmevl62","2","75","85","65","","","","","","","","","","","","","","","",""
"553","
          <p id=""word"" style=""font-size: 40px;"">thwool</p>
          <p style=""font-size: 16px;"">J = YES &nbsp;&nbsp;&nbsp; F = NO</p>
        ","f","html-keyboard-response","225","2.1.0","280188","J=YES, F=NO","zv5pmevl62","2","75","85","65","","","","","","","","","thwool","flaw","pseudoword","pseudoword","f","true","",""
"null","<p style=""font-size: 50px;"">+</p>","null","html-keyboard-response","226","2.1.0","280494","J=YES, F=NO","zv5pmevl62","2","75","85","65","","","","","","","","","","","","","","","",""
"null","audio/beep-329314.mp3","null","audio-keyboard-response","227","2.1.0","282045","J=YES, F=NO","zv5pmevl62","2","75","85","65","","","","","","","","","","","","","","","",""
"null","audio/novel.wav","null","audio-keyboard-response","228","2.1.0","282573","J=YES, F=NO","zv5pmevl62","2","75","85","65","","","","","","","","","","","","","","","",""
"535","
          <p id=""word"" style=""font-size: 40px;"">type</p>
          <p style=""font-size: 16px;"">J = YES &nbsp;&nbsp;&nbsp; F = NO</p>
        ","j","html-keyboard-response","229","2.1.0","283109","J=YES, F=NO","zv5pmevl62","2","75","85","65","","","","","","","","","type","novel","filler","filler","j","true","",""
"1134","<p>Excellent! You have finished block 1 of 8.</p>
                     <p>Feel free to take a 30 second break.</p>
                     <p>Press any key when you're ready to continue.</p>"," ","html-keyboard-response","230","2.1.0","284244","J=YES, F=NO","zv5pmevl62","2","75","85","65","","","","","","","","","","","","","","","",""
"724","<p>Starting main block 2 of 8. Press any key to continue.</p>"," ","html-keyboard-response","231","2.1.0","284968","J=YES, F=NO","zv5pmevl62","2","75","85","65","","","","","","","","","","","","","","","",""
"null","<p style=""font-size: 50px;"">+</p>","null","html-keyboard-response","232","2.1.0","285280","J=YES, F=NO","zv5pmevl62","2","75","85","65","","","","","","","","","","","","","","","",""
"null","audio/beep-329314.mp3","null","audio-keyboard-response","233","2.1.0","286825","J=YES, F=NO","zv5pmevl62","2","75","85","65","","","","","","","","","","","","","","","",""
"null","audio/dome.wav","null","audio-keyboard-response","234","2.1.0","287273","J=YES, F=NO","zv5pmevl62","2","75","85","65","","","","","","","","","","","","","","","",""
"503","
          <p id=""word"" style=""font-size: 40px;"">feed</p>
          <p style=""font-size: 16px;"">J = YES &nbsp;&nbsp;&nbsp; F = NO</p>
        ","j","html-keyboard-response","235","2.1.0","287777","J=YES, F=NO","zv5pmevl62","2","75","85","65","","","","","","","","","feed","dome","unrelated","experimental","j","true","",""
"null","<p style=""font-size: 50px;"">+</p>","null","html-keyboard-response","236","2.1.0","288089","J=YES, F=NO","zv5pmevl62","2","75","85","65","","","","","","","","","","","","","","","",""
"null","audio/beep-329314.mp3","null","audio-keyboard-response","237","2.1.0","289645","J=YES, F=NO","zv5pmevl62","2","75","85","65","","","","","","","","","","","","","","","",""
"null","audio/corpse1.wav","null","audio-keyboard-response","238","2.1.0","290293","J=YES, F=NO","zv5pmevl62","2","75","85","65","","","","","","","","","","","","","","","",""
"546","
          <p id=""word"" style=""font-size: 40px;"">glonet</p>
          <p style=""font-size: 16px;"">J = YES &nbsp;&nbsp;&nbsp; F = NO</p>
        ","f","html-keyboard-response","239","2.1.0","290840","J=YES, F=NO","zv5pmevl62","2","75","85","65","","","","","","","","","glonet","corpse1","pseudoword","pseudoword","f","true","",""
"null","<p style=""font-size: 50px;"">+</p>","null","html-keyboard-response","240","2.1.0","291144","J=YES, F=NO","zv5pmevl62","2","75","85","65","","","","","","","","","","","","","","","",""
"null","audio/beep-329314.mp3","null","audio-keyboard-response","241","2.1.0","292705","J=YES, F=NO","zv5pmevl62","2","75","85","65","","","","","","","","","","","","","","","",""
"null","audio/cave1.wav","null","audio-keyboard-response","242","2.1.0","293273","J=YES, F=NO","zv5pmevl62","2","75","85","65","","","","","","","","","","","","","","","",""
"790","
          <p id=""word"" style=""font-size: 40px;"">blacket</p>
          <p style=""font-size: 16px;"">J = YES &nbsp;&nbsp;&nbsp; F = NO</p>
        ","j","html-keyboard-response","243","2.1.0","294064","J=YES, F=NO","zv5pmevl62","2","75","85","65","","","","","","","","","blacket","cave1","pseudoword","pseudoword","f","false","",""
"null","<p style=""font-size: 50px;"">+</p>","null","html-keyboard-response","244","2.1.0","294366","J=YES, F=NO","zv5pmevl62","2","75","85","65","","","","","","","","","","","","","","","",""
"null","audio/beep-329314.mp3","null","audio-keyboard-response","245","2.1.0","295925","J=YES, F=NO","zv5pmevl62","2","75","85","65","","","","","","","","","","","","","","","",""
"null","audio/golf1.wav","null","audio-keyboard-response","246","2.1.0","296514","J=YES, F=NO","zv5pmevl62","2","75","85","65","","","","","","","","","","","","","","","",""
"591","
          <p id=""word"" style=""font-size: 40px;"">drabble</p>
          <p style=""font-size: 16px;"">J = YES &nbsp;&nbsp;&nbsp; F = NO</p>
        ","f","html-keyboard-response","247","2.1.0","297106","J=YES, F=NO","zv5pmevl62","2","75","85","65","","","","","","","","","drabble","golf1","pseudoword","pseudoword","f","true","",""
"null","<p style=""font-size: 50px;"">+</p>","null","html-keyboard-response","248","2.1.0","297417","J=YES, F=NO","zv5pmevl62","2","75","85","65","","","","","","","","","","","","","","","",""
"null","audio/beep-329314.mp3","null","audio-keyboard-response","249","2.1.0","298966","J=YES, F=NO","zv5pmevl62","2","75","85","65","","","","","","","","","","","","","","","",""
"null","audio/roof1.wav","null","audio-keyboard-response","250","2.1.0","299513","J=YES, F=NO","zv5pmevl62","2","75","85","65","","","","","","","","","","","","","","","",""
"594","
          <p id=""word"" style=""font-size: 40px;"">wronb</p>
          <p style=""font-size: 16px;"">J = YES &nbsp;&nbsp;&nbsp; F = NO</p>
        ","f","html-keyboard-response","251","2.1.0","300109","J=YES, F=NO","zv5pmevl62","2","75","85","65","","","","","","","","","wronb","roof1","pseudoword","pseudoword","f","true","",""
"null","<p style=""font-size: 50px;"">+</p>","null","html-keyboard-response","252","2.1.0","300420","J=YES, F=NO","zv5pmevl62","2","75","85","65","","","","","","","","","","","","","","","",""
"null","audio/beep-329314.mp3","null","audio-keyboard-response","253","2.1.0","301964","J=YES, F=NO","zv5pmevl62","2","75","85","65","","","","","","","","","","","","","","","",""
"null","audio/hawk1.wav","null","audio-keyboard-response","254","2.1.0","302573","J=YES, F=NO","zv5pmevl62","2","75","85","65","","","","","","","","","","","","","","","",""
"734","
          <p id=""word"" style=""font-size: 40px;"">ostach</p>
          <p style=""font-size: 16px;"">J = YES &nbsp;&nbsp;&nbsp; F = NO</p>
        ","f","html-keyboard-response","255","2.1.0","303308","J=YES, F=NO","zv5pmevl62","2","75","85","65","","","","","","","","","ostach","hawk1","pseudoword","pseudoword","f","true","",""
"null","<p style=""font-size: 50px;"">+</p>","null","html-keyboard-response","256","2.1.0","303621","J=YES, F=NO","zv5pmevl62","2","75","85","65","","","","","","","","","","","","","","","",""
"null","audio/beep-329314.mp3","null","audio-keyboard-response","257","2.1.0","305166","J=YES, F=NO","zv5pmevl62","2","75","85","65","","","","","","","","","","","","","","","",""
"null","audio/breath.wav","null","audio-keyboard-response","258","2.1.0","305754","J=YES, F=NO","zv5pmevl62","2","75","85","65","","","","","","","","","","","","","","","",""
"534","
          <p id=""word"" style=""font-size: 40px;"">twets</p>
          <p style=""font-size: 16px;"">J = YES &nbsp;&nbsp;&nbsp; F = NO</p>
        ","f","html-keyboard-response","259","2.1.0","306289","J=YES, F=NO","zv5pmevl62","2","75","85","65","","","","","","","","","twets","breath","pseudoword","pseudoword","f","true","",""
"null","<p style=""font-size: 50px;"">+</p>","null","html-keyboard-response","260","2.1.0","306590","J=YES, F=NO","zv5pmevl62","2","75","85","65","","","","","","","","","","","","","","","",""
"null","audio/beep-329314.mp3","null","audio-keyboard-response","261","2.1.0","308144","J=YES, F=NO","zv5pmevl62","2","75","85","65","","","","","","","","","","","","","","","",""
"null","audio/death1.wav","null","audio-keyboard-response","262","2.1.0","308653","J=YES, F=NO","zv5pmevl62","2","75","85","65","","","","","","","","","","","","","","","",""
"555","
          <p id=""word"" style=""font-size: 40px;"">conquer</p>
          <p style=""font-size: 16px;"">J = YES &nbsp;&nbsp;&nbsp; F = NO</p>
        ","j","html-keyboard-response","263","2.1.0","309208","J=YES, F=NO","zv5pmevl62","2","75","85","65","","","","","","","","","conquer","death1","metaphor","experimental","j","true","",""
"null","<p style=""font-size: 50px;"">+</p>","null","html-keyboard-response","264","2.1.0","309510","J=YES, F=NO","zv5pmevl62","2","75","85","65","","","","","","","","","","","","","","","",""
"null","audio/beep-329314.mp3","null","audio-keyboard-response","265","2.1.0","311065","J=YES, F=NO","zv5pmevl62","2","75","85","65","","","","","","","","","","","","","","","",""
"null","audio/pig.wav","null","audio-keyboard-response","266","2.1.0","311454","J=YES, F=NO","zv5pmevl62","2","75","85","65","","","","","","","","","","","","","","","",""
"731","
          <p id=""word"" style=""font-size: 40px;"">tirlike</p>
          <p style=""font-size: 16px;"">J = YES &nbsp;&nbsp;&nbsp; F = NO</p>
        ","f","html-keyboard-response","267","2.1.0","312185","J=YES, F=NO","zv5pmevl62","2","75","85","65","","","","","","","","","tirlike","pig","pseudoword","pseudoword","f","true","",""
"null","<p style=""font-size: 50px;"">+</p>","null","html-keyboard-response","268","2.1.0","312496","J=YES, F=NO","zv5pmevl62","2","75","85","65","","","","","","","","","","","","","","","",""
"null","audio/beep-329314.mp3","null","audio-keyboard-response","269","2.1.0","314045","J=YES, F=NO","zv5pmevl62","2","75","85","65","","","","","","","","","","","","","","","",""
"null","audio/bomb1.wav","null","audio-keyboard-response","270","2.1.0","314433","J=YES, F=NO","zv5pmevl62","2","75","85","65","","","","","","","","","","","","","","","",""
"541","
          <p id=""word"" style=""font-size: 40px;"">drop</p>
          <p style=""font-size: 16px;"">J = YES &nbsp;&nbsp;&nbsp; F = NO</p>
        ","j","html-keyboard-response","271","2.1.0","314975","J=YES, F=NO","zv5pmevl62","2","75","85","65","","","","","","","","","drop","bomb1","literal","experimental","j","true","",""
"null","<p style=""font-size: 50px;"">+</p>","null","html-keyboard-response","272","2.1.0","315278","J=YES, F=NO","zv5pmevl62","2","75","85","65","","","","","","","","","","","","","","","",""
"null","audio/beep-329314.mp3","null","audio-keyboard-response","273","2.1.0","316825","J=YES, F=NO","zv5pmevl62","2","75","85","65","","","","","","","","","","","","","","","",""
"null","audio/voice.wav","null","audio-keyboard-response","274","2.1.0","317473","J=YES, F=NO","zv5pmevl62","2","75","85","65","","","","","","","","","","","","","","","",""
"520","
          <p id=""word"" style=""font-size: 40px;"">grintle</p>
          <p style=""font-size: 16px;"">J = YES &nbsp;&nbsp;&nbsp; F = NO</p>
        ","f","html-keyboard-response","275","2.1.0","317994","J=YES, F=NO","zv5pmevl62","2","75","85","65","","","","","","","","","grintle","voice","pseudoword","pseudoword","f","true","",""
"null","<p style=""font-size: 50px;"">+</p>","null","html-keyboard-response","276","2.1.0","318301","J=YES, F=NO","zv5pmevl62","2","75","85","65","","","","","","","","","","","","","","","",""
"null","audio/beep-329314.mp3","null","audio-keyboard-response","277","2.1.0","319845","J=YES, F=NO","zv5pmevl62","2","75","85","65","","","","","","","","","","","","","","","",""
"null","audio/topic.wav","null","audio-keyboard-response","278","2.1.0","320473","J=YES, F=NO","zv5pmevl62","2","75","85","65","","","","","","","","","","","","","","","",""
"653","
          <p id=""word"" style=""font-size: 40px;"">infortuitist</p>
          <p style=""font-size: 16px;"">J = YES &nbsp;&nbsp;&nbsp; F = NO</p>
        ","f","html-keyboard-response","279","2.1.0","321127","J=YES, F=NO","zv5pmevl62","2","75","85","65","","","","","","","","","infortuitist","topic","pseudoword","pseudoword","f","true","",""
"null","<p style=""font-size: 50px;"">+</p>","null","html-keyboard-response","280","2.1.0","321433","J=YES, F=NO","zv5pmevl62","2","75","85","65","","","","","","","","","","","","","","","",""
"null","audio/beep-329314.mp3","null","audio-keyboard-response","281","2.1.0","322984","J=YES, F=NO","zv5pmevl62","2","75","85","65","","","","","","","","","","","","","","","",""
"null","audio/gift1.wav","null","audio-keyboard-response","282","2.1.0","323473","J=YES, F=NO","zv5pmevl62","2","75","85","65","","","","","","","","","","","","","","","",""
"1007","
          <p id=""word"" style=""font-size: 40px;"">give</p>
          <p style=""font-size: 16px;"">J = YES &nbsp;&nbsp;&nbsp; F = NO</p>
        ","j","html-keyboard-response","283","2.1.0","324481","J=YES, F=NO","zv5pmevl62","2","75","85","65","","","","","","","","","give","gift1","literal","experimental","j","true","",""
"null","<p style=""font-size: 50px;"">+</p>","null","html-keyboard-response","284","2.1.0","324794","J=YES, F=NO","zv5pmevl62","2","75","85","65","","","","","","","","","","","","","","","",""
"null","audio/beep-329314.mp3","null","audio-keyboard-response","285","2.1.0","326346","J=YES, F=NO","zv5pmevl62","2","75","85","65","","","","","","","","","","","","","","","",""
"null","audio/bush1.wav","null","audio-keyboard-response","286","2.1.0","326854","J=YES, F=NO","zv5pmevl62","2","75","85","65","","","","","","","","","","","","","","","",""
"973","
          <p id=""word"" style=""font-size: 40px;"">platined</p>
          <p style=""font-size: 16px;"">J = YES &nbsp;&nbsp;&nbsp; F = NO</p>
        ","f","html-keyboard-response","287","2.1.0","327827","J=YES, F=NO","zv5pmevl62","2","75","85","65","","","","","","","","","platined","bush1","pseudoword","pseudoword","f","true","",""
"null","<p style=""font-size: 50px;"">+</p>","null","html-keyboard-response","288","2.1.0","328141","J=YES, F=NO","zv5pmevl62","2","75","85","65","","","","","","","","","","","","","","","",""
"null","audio/beep-329314.mp3","null","audio-keyboard-response","289","2.1.0","329685","J=YES, F=NO","zv5pmevl62","2","75","85","65","","","","","","","","","","","","","","","",""
"null","audio/strength.wav","null","audio-keyboard-response","290","2.1.0","330454","J=YES, F=NO","zv5pmevl62","2","75","85","65","","","","","","","","","","","","","","","",""
"549","
          <p id=""word"" style=""font-size: 40px;"">plabet</p>
          <p style=""font-size: 16px;"">J = YES &nbsp;&nbsp;&nbsp; F = NO</p>
        ","f","html-keyboard-response","291","2.1.0","331004","J=YES, F=NO","zv5pmevl62","2","75","85","65","","","","","","","","","plabet","strength","pseudoword","pseudoword","f","true","",""
"null","<p style=""font-size: 50px;"">+</p>","null","html-keyboard-response","292","2.1.0","331318","J=YES, F=NO","zv5pmevl62","2","75","85","65","","","","","","","","","","","","","","","",""
"null","audio/beep-329314.mp3","null","audio-keyboard-response","293","2.1.0","332865","J=YES, F=NO","zv5pmevl62","2","75","85","65","","","","","","","","","","","","","","","",""
"null","audio/theory1.wav","null","audio-keyboard-response","294","2.1.0","333533","J=YES, F=NO","zv5pmevl62","2","75","85","65","","","","","","","","","","","","","","","",""
"516","
          <p id=""word"" style=""font-size: 40px;"">scolve</p>
          <p style=""font-size: 16px;"">J = YES &nbsp;&nbsp;&nbsp; F = NO</p>
        ","f","html-keyboard-response","295","2.1.0","334049","J=YES, F=NO","zv5pmevl62","2","75","85","65","","","","","","","","","scolve","theory1","pseudoword","pseudoword","f","true","",""
"1161","<p>Excellent! You have finished block 2 of 8.</p>
                     <p>Feel free to take a 30 second break.</p>
                     <p>Press any key when you're ready to continue.</p>"," ","html-keyboard-response","296","2.1.0","335212","J=YES, F=NO","zv5pmevl62","2","75","85","65","","","","","","","","","","","","","","","",""
"810","<p>Starting main block 3 of 8. Press any key to continue.</p>"," ","html-keyboard-response","297","2.1.0","336022","J=YES, F=NO","zv5pmevl62","2","75","85","65","","","","","","","","","","","","","","","",""
"null","<p style=""font-size: 50px;"">+</p>","null","html-keyboard-response","298","2.1.0","336334","J=YES, F=NO","zv5pmevl62","2","75","85","65","","","","","","","","","","","","","","","",""
"null","audio/beep-329314.mp3","null","audio-keyboard-response","299","2.1.0","337885","J=YES, F=NO","zv5pmevl62","2","75","85","65","","","","","","","","","","","","","","","",""
"null","audio/smirk1.wav","null","audio-keyboard-response","300","2.1.0","338613","J=YES, F=NO","zv5pmevl62","2","75","85","65","","","","","","","","","","","","","","","",""
"605","
          <p id=""word"" style=""font-size: 40px;"">snopt</p>
          <p style=""font-size: 16px;"">J = YES &nbsp;&nbsp;&nbsp; F = NO</p>
        ","f","html-keyboard-response","301","2.1.0","339219","J=YES, F=NO","zv5pmevl62","2","75","85","65","","","","","","","","","snopt","smirk1","pseudoword","pseudoword","f","true","",""
"null","<p style=""font-size: 50px;"">+</p>","null","html-keyboard-response","302","2.1.0","339527","J=YES, F=NO","zv5pmevl62","2","75","85","65","","","","","","","","","","","","","","","",""
"null","audio/beep-329314.mp3","null","audio-keyboard-response","303","2.1.0","341085","J=YES, F=NO","zv5pmevl62","2","75","85","65","","","","","","","","","","","","","","","",""
"null","audio/hotel1.wav","null","audio-keyboard-response","304","2.1.0","341753","J=YES, F=NO","zv5pmevl62","2","75","85","65","","","","","","","","","","","","","","","",""
"580","
          <p id=""word"" style=""font-size: 40px;"">flanter</p>
          <p style=""font-size: 16px;"">J = YES &nbsp;&nbsp;&nbsp; F = NO</p>
        ","j","html-keyboard-response","305","2.1.0","342334","J=YES, F=NO","zv5pmevl62","2","75","85","65","","","","","","","","","flanter","hotel1","pseudoword","pseudoword","f","false","",""
"null","<p style=""font-size: 50px;"">+</p>","null","html-keyboard-response","306","2.1.0","342635","J=YES, F=NO","zv5pmevl62","2","75","85","65","","","","","","","","","","","","","","","",""
"null","audio/beep-329314.mp3","null","audio-keyboard-response","307","2.1.0","344185","J=YES, F=NO","zv5pmevl62","2","75","85","65","","","","","","","","","","","","","","","",""
"null","audio/dollar.wav","null","audio-keyboard-response","308","2.1.0","344573","J=YES, F=NO","zv5pmevl62","2","75","85","65","","","","","","","","","","","","","","","",""
"520","
          <p id=""word"" style=""font-size: 40px;"">gliptism</p>
          <p style=""font-size: 16px;"">J = YES &nbsp;&nbsp;&nbsp; F = NO</p>
        ","f","html-keyboard-response","309","2.1.0","345094","J=YES, F=NO","zv5pmevl62","2","75","85","65","","","","","","","","","gliptism","dollar","pseudoword","pseudoword","f","true","",""
"null","<p style=""font-size: 50px;"">+</p>","null","html-keyboard-response","310","2.1.0","345403","J=YES, F=NO","zv5pmevl62","2","75","85","65","","","","","","","","","","","","","","","",""
"null","audio/beep-329314.mp3","null","audio-keyboard-response","311","2.1.0","346945","J=YES, F=NO","zv5pmevl62","2","75","85","65","","","","","","","","","","","","","","","",""
"null","audio/ankle1.wav","null","audio-keyboard-response","312","2.1.0","347474","J=YES, F=NO","zv5pmevl62","2","75","85","65","","","","","","","","","","","","","","","",""
"600","
          <p id=""word"" style=""font-size: 40px;"">switm</p>
          <p style=""font-size: 16px;"">J = YES &nbsp;&nbsp;&nbsp; F = NO</p>
        ","f","html-keyboard-response","313","2.1.0","348074","J=YES, F=NO","zv5pmevl62","2","75","85","65","","","","","","","","","switm","ankle1","pseudoword","pseudoword","f","true","",""
"null","<p style=""font-size: 50px;"">+</p>","null","html-keyboard-response","314","2.1.0","348379","J=YES, F=NO","zv5pmevl62","2","75","85","65","","","","","","","","","","","","","","","",""
"null","audio/beep-329314.mp3","null","audio-keyboard-response","315","2.1.0","349925","J=YES, F=NO","zv5pmevl62","2","75","85","65","","","","","","","","","","","","","","","",""
"null","audio/floor.wav","null","audio-keyboard-response","316","2.1.0","350513","J=YES, F=NO","zv5pmevl62","2","75","85","65","","","","","","","","","","","","","","","",""
"654","
          <p id=""word"" style=""font-size: 40px;"">mop</p>
          <p style=""font-size: 16px;"">J = YES &nbsp;&nbsp;&nbsp; F = NO</p>
        ","j","html-keyboard-response","317","2.1.0","351167","J=YES, F=NO","zv5pmevl62","2","75","85","65","","","","","","","","","mop","floor","filler","filler","j","true","",""
"null","<p style=""font-size: 50px;"">+</p>","null","html-keyboard-response","318","2.1.0","351478","J=YES, F=NO","zv5pmevl62","2","75","85","65","","","","","","","","","","","","","","","",""
"null","audio/beep-329314.mp3","null","audio-keyboard-response","319","2.1.0","353025","J=YES, F=NO","zv5pmevl62","2","75","85","65","","","","","","","","","","","","","","","",""
"null","audio/trout1.wav","null","audio-keyboard-response","320","2.1.0","353633","J=YES, F=NO","zv5pmevl62","2","75","85","65","","","","","","","","","","","","","","","",""
"511","
          <p id=""word"" style=""font-size: 40px;"">spimt</p>
          <p style=""font-size: 16px;"">J = YES &nbsp;&nbsp;&nbsp; F = NO</p>
        ","f","html-keyboard-response","321","2.1.0","354145","J=YES, F=NO","zv5pmevl62","2","75","85","65","","","","","","","","","spimt","trout1","pseudoword","pseudoword","f","true","",""
"null","<p style=""font-size: 50px;"">+</p>","null","html-keyboard-response","322","2.1.0","354451","J=YES, F=NO","zv5pmevl62","2","75","85","65","","","","","","","","","","","","","","","",""
"null","audio/beep-329314.mp3","null","audio-keyboard-response","323","2.1.0","356005","J=YES, F=NO","zv5pmevl62","2","75","85","65","","","","","","","","","","","","","","","",""
"null","audio/empire.wav","null","audio-keyboard-response","324","2.1.0","356654","J=YES, F=NO","zv5pmevl62","2","75","85","65","","","","","","","","","","","","","","","",""
"714","
          <p id=""word"" style=""font-size: 40px;"">bring</p>
          <p style=""font-size: 16px;"">J = YES &nbsp;&nbsp;&nbsp; F = NO</p>
        ","j","html-keyboard-response","325","2.1.0","357369","J=YES, F=NO","zv5pmevl62","2","75","85","65","","","","","","","","","bring","empire","unrelated","experimental","j","true","",""
"null","<p style=""font-size: 50px;"">+</p>","null","html-keyboard-response","326","2.1.0","357684","J=YES, F=NO","zv5pmevl62","2","75","85","65","","","","","","","","","","","","","","","",""
"null","audio/beep-329314.mp3","null","audio-keyboard-response","327","2.1.0","359224","J=YES, F=NO","zv5pmevl62","2","75","85","65","","","","","","","","","","","","","","","",""
"null","audio/uncle1.wav","null","audio-keyboard-response","328","2.1.0","359854","J=YES, F=NO","zv5pmevl62","2","75","85","65","","","","","","","","","","","","","","","",""
"470","
          <p id=""word"" style=""font-size: 40px;"">dramble</p>
          <p style=""font-size: 16px;"">J = YES &nbsp;&nbsp;&nbsp; F = NO</p>
        ","f","html-keyboard-response","329","2.1.0","360324","J=YES, F=NO","zv5pmevl62","2","75","85","65","","","","","","","","","dramble","uncle1","pseudoword","pseudoword","f","true","",""
"null","<p style=""font-size: 50px;"">+</p>","null","html-keyboard-response","330","2.1.0","360628","J=YES, F=NO","zv5pmevl62","2","75","85","65","","","","","","","","","","","","","","","",""
"null","audio/beep-329314.mp3","null","audio-keyboard-response","331","2.1.0","362184","J=YES, F=NO","zv5pmevl62","2","75","85","65","","","","","","","","","","","","","","","",""
"null","audio/budget1.wav","null","audio-keyboard-response","332","2.1.0","362933","J=YES, F=NO","zv5pmevl62","2","75","85","65","","","","","","","","","","","","","","","",""
"610","
          <p id=""word"" style=""font-size: 40px;"">sulist</p>
          <p style=""font-size: 16px;"">J = YES &nbsp;&nbsp;&nbsp; F = NO</p>
        ","f","html-keyboard-response","333","2.1.0","363545","J=YES, F=NO","zv5pmevl62","2","75","85","65","","","","","","","","","sulist","budget1","pseudoword","pseudoword","f","true","",""
"null","<p style=""font-size: 50px;"">+</p>","null","html-keyboard-response","334","2.1.0","363855","J=YES, F=NO","zv5pmevl62","2","75","85","65","","","","","","","","","","","","","","","",""
"null","audio/beep-329314.mp3","null","audio-keyboard-response","335","2.1.0","365405","J=YES, F=NO","zv5pmevl62","2","75","85","65","","","","","","","","","","","","","","","",""
"null","audio/arm.wav","null","audio-keyboard-response","336","2.1.0","365974","J=YES, F=NO","zv5pmevl62","2","75","85","65","","","","","","","","","","","","","","","",""
"578","
          <p id=""word"" style=""font-size: 40px;"">seize</p>
          <p style=""font-size: 16px;"">J = YES &nbsp;&nbsp;&nbsp; F = NO</p>
        ","j","html-keyboard-response","337","2.1.0","366553","J=YES, F=NO","zv5pmevl62","2","75","85","65","","","","","","","","","seize","arm","literal","experimental","j","true","",""
"null","<p style=""font-size: 50px;"">+</p>","null","html-keyboard-response","338","2.1.0","366864","J=YES, F=NO","zv5pmevl62","2","75","85","65","","","","","","","","","","","","","","","",""
"null","audio/beep-329314.mp3","null","audio-keyboard-response","339","2.1.0","368405","J=YES, F=NO","zv5pmevl62","2","75","85","65","","","","","","","","","","","","","","","",""
"null","audio/heart1.wav","null","audio-keyboard-response","340","2.1.0","369054","J=YES, F=NO","zv5pmevl62","2","75","85","65","","","","","","","","","","","","","","","",""
"519","
          <p id=""word"" style=""font-size: 40px;"">dralm</p>
          <p style=""font-size: 16px;"">J = YES &nbsp;&nbsp;&nbsp; F = NO</p>
        ","f","html-keyboard-response","341","2.1.0","369573","J=YES, F=NO","zv5pmevl62","2","75","85","65","","","","","","","","","dralm","heart1","pseudoword","pseudoword","f","true","",""
"null","<p style=""font-size: 50px;"">+</p>","null","html-keyboard-response","342","2.1.0","369888","J=YES, F=NO","zv5pmevl62","2","75","85","65","","","","","","","","","","","","","","","",""
"null","audio/beep-329314.mp3","null","audio-keyboard-response","343","2.1.0","371444","J=YES, F=NO","zv5pmevl62","2","75","85","65","","","","","","","","","","","","","","","",""
"null","audio/heart1.wav","null","audio-keyboard-response","344","2.1.0","372074","J=YES, F=NO","zv5pmevl62","2","75","85","65","","","","","","","","","","","","","","","",""
"594","
          <p id=""word"" style=""font-size: 40px;"">touch</p>
          <p style=""font-size: 16px;"">J = YES &nbsp;&nbsp;&nbsp; F = NO</p>
        ","j","html-keyboard-response","345","2.1.0","372669","J=YES, F=NO","zv5pmevl62","2","75","85","65","","","","","","","","","touch","heart1","metaphor","experimental","j","true","",""
"null","<p style=""font-size: 50px;"">+</p>","null","html-keyboard-response","346","2.1.0","372980","J=YES, F=NO","zv5pmevl62","2","75","85","65","","","","","","","","","","","","","","","",""
"null","audio/beep-329314.mp3","null","audio-keyboard-response","347","2.1.0","374525","J=YES, F=NO","zv5pmevl62","2","75","85","65","","","","","","","","","","","","","","","",""
"null","audio/garden1.wav","null","audio-keyboard-response","348","2.1.0","375073","J=YES, F=NO","zv5pmevl62","2","75","85","65","","","","","","","","","","","","","","","",""
"532","
          <p id=""word"" style=""font-size: 40px;"">invest</p>
          <p style=""font-size: 16px;"">J = YES &nbsp;&nbsp;&nbsp; F = NO</p>
        ","j","html-keyboard-response","349","2.1.0","375606","J=YES, F=NO","zv5pmevl62","2","75","85","65","","","","","","","","","invest","garden1","unrelated","experimental","j","true","",""
"null","<p style=""font-size: 50px;"">+</p>","null","html-keyboard-response","350","2.1.0","375918","J=YES, F=NO","zv5pmevl62","2","75","85","65","","","","","","","","","","","","","","","",""
"null","audio/beep-329314.mp3","null","audio-keyboard-response","351","2.1.0","377465","J=YES, F=NO","zv5pmevl62","2","75","85","65","","","","","","","","","","","","","","","",""
"null","audio/flaw.wav","null","audio-keyboard-response","352","2.1.0","378114","J=YES, F=NO","zv5pmevl62","2","75","85","65","","","","","","","","","","","","","","","",""
"604","
          <p id=""word"" style=""font-size: 40px;"">hide</p>
          <p style=""font-size: 16px;"">J = YES &nbsp;&nbsp;&nbsp; F = NO</p>
        ","j","html-keyboard-response","353","2.1.0","378718","J=YES, F=NO","zv5pmevl62","2","75","85","65","","","","","","","","","hide","flaw","metaphor","experimental","j","true","",""
"null","<p style=""font-size: 50px;"">+</p>","null","html-keyboard-response","354","2.1.0","379021","J=YES, F=NO","zv5pmevl62","2","75","85","65","","","","","","","","","","","","","","","",""
"null","audio/beep-329314.mp3","null","audio-keyboard-response","355","2.1.0","380565","J=YES, F=NO","zv5pmevl62","2","75","85","65","","","","","","","","","","","","","","","",""
"null","audio/van1.wav","null","audio-keyboard-response","356","2.1.0","381054","J=YES, F=NO","zv5pmevl62","2","75","85","65","","","","","","","","","","","","","","","",""
"537","
          <p id=""word"" style=""font-size: 40px;"">push</p>
          <p style=""font-size: 16px;"">J = YES &nbsp;&nbsp;&nbsp; F = NO</p>
        ","j","html-keyboard-response","357","2.1.0","381591","J=YES, F=NO","zv5pmevl62","2","75","85","65","","","","","","","","","push","van1","filler","filler","j","true","",""
"null","<p style=""font-size: 50px;"">+</p>","null","html-keyboard-response","358","2.1.0","381907","J=YES, F=NO","zv5pmevl62","2","75","85","65","","","","","","","","","","","","","","","",""
"null","audio/beep-329314.mp3","null","audio-keyboard-response","359","2.1.0","383465","J=YES, F=NO","zv5pmevl62","2","75","85","65","","","","","","","","","","","","","","","",""
"null","audio/holiday1.wav","null","audio-keyboard-response","360","2.1.0","384113","J=YES, F=NO","zv5pmevl62","2","75","85","65","","","","","","","","","","","","","","","",""
"867","
          <p id=""word"" style=""font-size: 40px;"">drivets</p>
          <p style=""font-size: 16px;"">J = YES &nbsp;&nbsp;&nbsp; F = NO</p>
        ","f","html-keyboard-response","361","2.1.0","384980","J=YES, F=NO","zv5pmevl62","2","75","85","65","","","","","","","","","drivets","holiday1","pseudoword","pseudoword","f","true","",""
"1182","<p>Excellent! You have finished block 3 of 8.</p>
                     <p>Feel free to take a 30 second break.</p>
                     <p>Press any key when you're ready to continue.</p>"," ","html-keyboard-response","362","2.1.0","386163","J=YES, F=NO","zv5pmevl62","2","75","85","65","","","","","","","","","","","","","","","",""
"1027","<p>Starting main block 4 of 8. Press any key to continue.</p>"," ","html-keyboard-response","363","2.1.0","387191","J=YES, F=NO","zv5pmevl62","2","75","85","65","","","","","","","","","","","","","","","",""
"null","<p style=""font-size: 50px;"">+</p>","null","html-keyboard-response","364","2.1.0","387496","J=YES, F=NO","zv5pmevl62","2","75","85","65","","","","","","","","","","","","","","","",""
"null","audio/beep-329314.mp3","null","audio-keyboard-response","365","2.1.0","389044","J=YES, F=NO","zv5pmevl62","2","75","85","65","","","","","","","","","","","","","","","",""
"null","audio/age1.wav","null","audio-keyboard-response","366","2.1.0","389613","J=YES, F=NO","zv5pmevl62","2","75","85","65","","","","","","","","","","","","","","","",""
"561","
          <p id=""word"" style=""font-size: 40px;"">bake</p>
          <p style=""font-size: 16px;"">J = YES &nbsp;&nbsp;&nbsp; F = NO</p>
        ","j","html-keyboard-response","367","2.1.0","390174","J=YES, F=NO","zv5pmevl62","2","75","85","65","","","","","","","","","bake","age1","filler","filler","j","true","",""
"null","<p style=""font-size: 50px;"">+</p>","null","html-keyboard-response","368","2.1.0","390487","J=YES, F=NO","zv5pmevl62","2","75","85","65","","","","","","","","","","","","","","","",""
"null","audio/beep-329314.mp3","null","audio-keyboard-response","369","2.1.0","392045","J=YES, F=NO","zv5pmevl62","2","75","85","65","","","","","","","","","","","","","","","",""
"null","audio/stain.wav","null","audio-keyboard-response","370","2.1.0","392714","J=YES, F=NO","zv5pmevl62","2","75","85","65","","","","","","","","","","","","","","","",""
"632","
          <p id=""word"" style=""font-size: 40px;"">rumpsied</p>
          <p style=""font-size: 16px;"">J = YES &nbsp;&nbsp;&nbsp; F = NO</p>
        ","f","html-keyboard-response","371","2.1.0","393347","J=YES, F=NO","zv5pmevl62","2","75","85","65","","","","","","","","","rumpsied","stain","pseudoword","pseudoword","f","true","",""
"null","<p style=""font-size: 50px;"">+</p>","null","html-keyboard-response","372","2.1.0","393662","J=YES, F=NO","zv5pmevl62","2","75","85","65","","","","","","","","","","","","","","","",""
"null","audio/beep-329314.mp3","null","audio-keyboard-response","373","2.1.0","395205","J=YES, F=NO","zv5pmevl62","2","75","85","65","","","","","","","","","","","","","","","",""
"null","audio/table1.wav","null","audio-keyboard-response","374","2.1.0","395733","J=YES, F=NO","zv5pmevl62","2","75","85","65","","","","","","","","","","","","","","","",""
"967","
          <p id=""word"" style=""font-size: 40px;"">clear</p>
          <p style=""font-size: 16px;"">J = YES &nbsp;&nbsp;&nbsp; F = NO</p>
        ","j","html-keyboard-response","375","2.1.0","396701","J=YES, F=NO","zv5pmevl62","2","75","85","65","","","","","","","","","clear","table1","literal","experimental","j","true","",""
"null","<p style=""font-size: 50px;"">+</p>","null","html-keyboard-response","376","2.1.0","397013","J=YES, F=NO","zv5pmevl62","2","75","85","65","","","","","","","","","","","","","","","",""
"null","audio/beep-329314.mp3","null","audio-keyboard-response","377","2.1.0","398566","J=YES, F=NO","zv5pmevl62","2","75","85","65","","","","","","","","","","","","","","","",""
"null","audio/neck.wav","null","audio-keyboard-response","378","2.1.0","399134","J=YES, F=NO","zv5pmevl62","2","75","85","65","","","","","","","","","","","","","","","",""
"651","
          <p id=""word"" style=""font-size: 40px;"">werling</p>
          <p style=""font-size: 16px;"">J = YES &nbsp;&nbsp;&nbsp; F = NO</p>
        ","f","html-keyboard-response","379","2.1.0","399786","J=YES, F=NO","zv5pmevl62","2","75","85","65","","","","","","","","","werling","neck","pseudoword","pseudoword","f","true","",""
"null","<p style=""font-size: 50px;"">+</p>","null","html-keyboard-response","380","2.1.0","400091","J=YES, F=NO","zv5pmevl62","2","75","85","65","","","","","","","","","","","","","","","",""
"null","audio/beep-329314.mp3","null","audio-keyboard-response","381","2.1.0","401644","J=YES, F=NO","zv5pmevl62","2","75","85","65","","","","","","","","","","","","","","","",""
"null","audio/empire.wav","null","audio-keyboard-response","382","2.1.0","402273","J=YES, F=NO","zv5pmevl62","2","75","85","65","","","","","","","","","","","","","","","",""
"711","
          <p id=""word"" style=""font-size: 40px;"">slorby</p>
          <p style=""font-size: 16px;"">J = YES &nbsp;&nbsp;&nbsp; F = NO</p>
        ","f","html-keyboard-response","383","2.1.0","402985","J=YES, F=NO","zv5pmevl62","2","75","85","65","","","","","","","","","slorby","empire","pseudoword","pseudoword","f","true","",""
"null","<p style=""font-size: 50px;"">+</p>","null","html-keyboard-response","384","2.1.0","403300","J=YES, F=NO","zv5pmevl62","2","75","85","65","","","","","","","","","","","","","","","",""
"null","audio/beep-329314.mp3","null","audio-keyboard-response","385","2.1.0","404844","J=YES, F=NO","zv5pmevl62","2","75","85","65","","","","","","","","","","","","","","","",""
"null","audio/road.wav","null","audio-keyboard-response","386","2.1.0","405274","J=YES, F=NO","zv5pmevl62","2","75","85","65","","","","","","","","","","","","","","","",""
"739","
          <p id=""word"" style=""font-size: 40px;"">wappings</p>
          <p style=""font-size: 16px;"">J = YES &nbsp;&nbsp;&nbsp; F = NO</p>
        ","j","html-keyboard-response","387","2.1.0","406013","J=YES, F=NO","zv5pmevl62","2","75","85","65","","","","","","","","","wappings","road","pseudoword","pseudoword","f","false","",""
"null","<p style=""font-size: 50px;"">+</p>","null","html-keyboard-response","388","2.1.0","406323","J=YES, F=NO","zv5pmevl62","2","75","85","65","","","","","","","","","","","","","","","",""
"null","audio/beep-329314.mp3","null","audio-keyboard-response","389","2.1.0","407865","J=YES, F=NO","zv5pmevl62","2","75","85","65","","","","","","","","","","","","","","","",""
"null","audio/wealth1.wav","null","audio-keyboard-response","390","2.1.0","408453","J=YES, F=NO","zv5pmevl62","2","75","85","65","","","","","","","","","","","","","","","",""
"842","
          <p id=""word"" style=""font-size: 40px;"">possess</p>
          <p style=""font-size: 16px;"">J = YES &nbsp;&nbsp;&nbsp; F = NO</p>
        ","f","html-keyboard-response","391","2.1.0","409295","J=YES, F=NO","zv5pmevl62","2","75","85","65","","","","","","","","","possess","wealth1","literal","experimental","j","false","",""
