"rt","stimulus","response","trial_type","trial_index","plugin_version","time_elapsed","response_mapping","subject_id","list_index","lextale_score","lextale_word_score","lextale_nonword_score","success","timeout","failed_images","failed_audio","failed_video","task","isWord","isDummy","target","prime","prime_type","stimulus_type","correct_response","correct","section","question_order"
"8137","
    <div style=""max-width: 800px; margin: auto; text-align: left;"">
      <h2>STANFORD UNIVERSITY</h2>
      <h3>Research Information Sheet</h3>
      <p><strong>Protocol Director:</strong> Robert Hawkins<br>
      <strong>Protocol Title:</strong> Communication and social cognition in natural audiovisual contexts<br>
      <strong>IRB#:</strong> 77226</p>

      <p><strong>DESCRIPTION:</strong> You are invited to participate in a research study about language and communication. The purpose of the research is to understand how you interact and communicate with other people in naturalistic settings as a fluent English speaker. This research will be conducted through the Prolific platform, including participants from the US, UK, and Canada. If you decide to participate in this research, you will play a communication game in a group with one or more partners.</p>

      <p><strong>TIME INVOLVEMENT:</strong> The task will last the amount of time advertised on Prolific. You are free to withdraw from the study at any time.</p>

      <p><strong>RISKS AND BENEFITS:</strong> You may become frustrated if your partner gets distracted, or experience discomfort if other participants in your group send text that is inappropriate for the task. We ask you to please be respectful of other participants you might be interacting with to mitigate these risks. You may also experience discomfort when being asked to discuss or challenge emotionally salient political beliefs. Study data will be stored securely, in compliance with Stanford University standards, minimizing the risk of confidentiality breach. This study advances our scientific understanding of how people communicate and collaborate in naturalistic settings. This study may lead to further insights about what can go wrong in teamwork, suggest potential interventions to overcome these barriers, and help to develop assistive technologies that collaborate with human partners. We cannot and do not guarantee or promise that you will receive any benefits from this study.</p>

      <p><strong>PAYMENTS:</strong> You will receive payment in the amount advertised on Prolific. If you do not complete this study, you will receive prorated payment based on the time that you have spent. Additionally, you may be eligible for bonus payments as described in the instructions.</p>

      <p><strong>PARTICIPANT’S RIGHTS:</strong> If you have read this form and have decided to participate in this project, please understand your participation is voluntary and you have the right to withdraw your consent or discontinue participation at any time without penalty or loss of benefits to which you are otherwise entitled. The alternative is not to participate. You have the right to refuse to answer particular questions. The results of this research study may be presented at scientific or professional meetings or published in scientific journals. Your individual privacy will be maintained in all published and written data resulting from the study. In accordance with scientific norms, the data from this study may be used or shared with other researchers for future research (after removing personally identifying information) without additional consent from you.</p>

      <p><strong>CONTACT INFORMATION:</strong><br>
      Questions: If you have any questions, concerns or complaints about this research, its procedures, risks and benefits, contact the Protocol Director, Robert Hawkins (<a href=""mailto:rdhawkins@stanford.edu"">rdhawkins@stanford.edu</a>, 217-549-6923).<br>
      Independent Contact: If you are not satisfied with how this study is being conducted, or if you have any concerns, complaints, or general questions about the research or your rights as a participant, please contact the Stanford Institutional Review Board (IRB) to speak to someone independent of the research team at 650-723-2480 or toll free at 1-866-680-2906, or email at <a href=""mailto:irbnon-med@stanford.edu"">irbnon-med@stanford.edu</a>. You can also write to the Stanford IRB, Stanford University, 1705 El Camino Real, Palo Alto, CA 94306.</p>

      <p><strong>Please save or print a copy of this page for your records.</strong></p>
      <p>If you agree to participate in this research, click ""Continue"" below.</p>
    </div>
  ","0","html-button-response","0","2.1.0","8146","F=YES, J=NO","zzutsfyraz","0","79","73","85","","","","","","","","","","","","","","","",""
"45119","
    <div style=""max-width: 800px; margin: auto; text-align: left;"">
      <h2>Welcome!</h2>
      <p>Thank you for participating in this study. The experiment consists of three parts:</p>
      <ol>
        <li>An English vocabulary test</li>
        <li>A main task in which you will hear and see words, and decide whether the written word is a real English word</li>
        <li>A brief survey about your background</li>
      </ol>
      <p>Each part will be introduced before it begins.</p>
      <p>Please make sure you are in a quiet environment and can hear audio clearly for the final task.</p>
      <p style=""margin-top: 2em;"">Press any key to begin.</p>
    </div>
  "," ","html-keyboard-response","1","2.1.0","53267","F=YES, J=NO","zzutsfyraz","0","79","73","85","","","","","","","","","","","","","","","",""
"","","","preload","2","2.1.0","54514","F=YES, J=NO","zzutsfyraz","0","79","73","85","true","false","[]","[]","[]","","","","","","","","","","",""
"5918","
    <div style=""max-width: 800px; margin: auto; text-align: left;"">
      <h2>Part 1: Vocabulary Test</h2>
      <p>You will now complete the first part of the study: a short English vocabulary test.</p>
      <p>This test is called <strong>LexTALE</strong> and helps us get a general sense of your English proficiency.</p>
      <p style=""margin-top: 2em;"">Press any key to continue.</p>
    </div>
  "," ","html-keyboard-response","3","2.1.0","60433","F=YES, J=NO","zzutsfyraz","0","79","73","85","","","","","","","","","","","","","","","",""
"51178","
    <div style=""max-width: 800px; margin: auto; text-align: left;"">
      <h2>LexTALE Vocabulary Test</h2>
      <p>In this test, you will see a series of letter strings—one at a time.</p>
      <p>Your task is to decide whether each string is a real English word.</p>
      <p><strong>Key responses:</strong></p>
      <ul>
        <li><strong>F</strong> = YES (real English word)</li>
        <li><strong>J</strong> = NO (not a real English word)</li>
      </ul>
      <p>There is no time limit, but please try to be accurate.</p>
      <p style=""margin-top: 2em;"">Press any key to begin.</p>
    </div>
  "," ","html-keyboard-response","4","2.1.0","111612","F=YES, J=NO","zzutsfyraz","0","79","73","85","","","","","","","","","","","","","","","",""
"959","
  <p style=""font-size: 40px;"">platery</p>
  <p style=""font-size: 16px;"">F = YES &nbsp;&nbsp;&nbsp; J = NO</p>
","f","html-keyboard-response","5","2.1.0","112572","F=YES, J=NO","zzutsfyraz","0","79","73","85","","","","","","lextale","false","true","","","","","","","",""
"839","
  <p style=""font-size: 40px;"">denial</p>
  <p style=""font-size: 16px;"">F = YES &nbsp;&nbsp;&nbsp; J = NO</p>
","f","html-keyboard-response","6","2.1.0","113412","F=YES, J=NO","zzutsfyraz","0","79","73","85","","","","","","lextale","true","true","","","","","","","",""
"720","
  <p style=""font-size: 40px;"">marrit</p>
  <p style=""font-size: 16px;"">F = YES &nbsp;&nbsp;&nbsp; J = NO</p>
","j","html-keyboard-response","7","2.1.0","114132","F=YES, J=NO","zzutsfyraz","0","79","73","85","","","","","","lextale","false","true","","","","","","","",""
"855","
  <p style=""font-size: 40px;"">bottle</p>
  <p style=""font-size: 16px;"">F = YES &nbsp;&nbsp;&nbsp; J = NO</p>
","f","html-keyboard-response","8","2.1.0","114988","F=YES, J=NO","zzutsfyraz","0","79","73","85","","","","","","lextale","true","false","","","","","","","",""
"799","
  <p style=""font-size: 40px;"">birst</p>
  <p style=""font-size: 16px;"">F = YES &nbsp;&nbsp;&nbsp; J = NO</p>
","j","html-keyboard-response","9","2.1.0","115788","F=YES, J=NO","zzutsfyraz","0","79","73","85","","","","","","lextale","false","false","","","","","","","",""
"815","
  <p style=""font-size: 40px;"">envy</p>
  <p style=""font-size: 16px;"">F = YES &nbsp;&nbsp;&nbsp; J = NO</p>
","f","html-keyboard-response","10","2.1.0","116604","F=YES, J=NO","zzutsfyraz","0","79","73","85","","","","","","lextale","true","false","","","","","","","",""
"1406","
  <p style=""font-size: 40px;"">brang</p>
  <p style=""font-size: 16px;"">F = YES &nbsp;&nbsp;&nbsp; J = NO</p>
","j","html-keyboard-response","11","2.1.0","118010","F=YES, J=NO","zzutsfyraz","0","79","73","85","","","","","","lextale","false","false","","","","","","","",""
"793","
  <p style=""font-size: 40px;"">huge</p>
  <p style=""font-size: 16px;"">F = YES &nbsp;&nbsp;&nbsp; J = NO</p>
","f","html-keyboard-response","12","2.1.0","118805","F=YES, J=NO","zzutsfyraz","0","79","73","85","","","","","","lextale","true","false","","","","","","","",""
"1493","
  <p style=""font-size: 40px;"">plove</p>
  <p style=""font-size: 16px;"">F = YES &nbsp;&nbsp;&nbsp; J = NO</p>
","j","html-keyboard-response","13","2.1.0","120298","F=YES, J=NO","zzutsfyraz","0","79","73","85","","","","","","lextale","false","false","","","","","","","",""
"938","
  <p style=""font-size: 40px;"">border</p>
  <p style=""font-size: 16px;"">F = YES &nbsp;&nbsp;&nbsp; J = NO</p>
","f","html-keyboard-response","14","2.1.0","121236","F=YES, J=NO","zzutsfyraz","0","79","73","85","","","","","","lextale","true","false","","","","","","","",""
"968","
  <p style=""font-size: 40px;"">flimsy</p>
  <p style=""font-size: 16px;"">F = YES &nbsp;&nbsp;&nbsp; J = NO</p>
","f","html-keyboard-response","15","2.1.0","122205","F=YES, J=NO","zzutsfyraz","0","79","73","85","","","","","","lextale","true","false","","","","","","","",""
"1043","
  <p style=""font-size: 40px;"">drain</p>
  <p style=""font-size: 16px;"">F = YES &nbsp;&nbsp;&nbsp; J = NO</p>
","f","html-keyboard-response","16","2.1.0","123249","F=YES, J=NO","zzutsfyraz","0","79","73","85","","","","","","lextale","true","false","","","","","","","",""
"1671","
  <p style=""font-size: 40px;"">twindle</p>
  <p style=""font-size: 16px;"">F = YES &nbsp;&nbsp;&nbsp; J = NO</p>
","j","html-keyboard-response","17","2.1.0","124920","F=YES, J=NO","zzutsfyraz","0","79","73","85","","","","","","lextale","false","false","","","","","","","",""
"730","
  <p style=""font-size: 40px;"">propose</p>
  <p style=""font-size: 16px;"">F = YES &nbsp;&nbsp;&nbsp; J = NO</p>
","f","html-keyboard-response","18","2.1.0","125651","F=YES, J=NO","zzutsfyraz","0","79","73","85","","","","","","lextale","true","false","","","","","","","",""
"785","
  <p style=""font-size: 40px;"">forlay</p>
  <p style=""font-size: 16px;"">F = YES &nbsp;&nbsp;&nbsp; J = NO</p>
","j","html-keyboard-response","19","2.1.0","126437","F=YES, J=NO","zzutsfyraz","0","79","73","85","","","","","","lextale","false","false","","","","","","","",""
"999","
  <p style=""font-size: 40px;"">tenant</p>
  <p style=""font-size: 16px;"">F = YES &nbsp;&nbsp;&nbsp; J = NO</p>
","f","html-keyboard-response","20","2.1.0","127436","F=YES, J=NO","zzutsfyraz","0","79","73","85","","","","","","lextale","true","false","","","","","","","",""
"844","
  <p style=""font-size: 40px;"">strain</p>
  <p style=""font-size: 16px;"">F = YES &nbsp;&nbsp;&nbsp; J = NO</p>
","f","html-keyboard-response","21","2.1.0","128280","F=YES, J=NO","zzutsfyraz","0","79","73","85","","","","","","lextale","true","false","","","","","","","",""
"1836","
  <p style=""font-size: 40px;"">holster</p>
  <p style=""font-size: 16px;"">F = YES &nbsp;&nbsp;&nbsp; J = NO</p>
","j","html-keyboard-response","22","2.1.0","130117","F=YES, J=NO","zzutsfyraz","0","79","73","85","","","","","","lextale","true","false","","","","","","","",""
"863","
  <p style=""font-size: 40px;"">hinder</p>
  <p style=""font-size: 16px;"">F = YES &nbsp;&nbsp;&nbsp; J = NO</p>
","j","html-keyboard-response","23","2.1.0","130981","F=YES, J=NO","zzutsfyraz","0","79","73","85","","","","","","lextale","true","false","","","","","","","",""
"1441","
  <p style=""font-size: 40px;"">swindle</p>
  <p style=""font-size: 16px;"">F = YES &nbsp;&nbsp;&nbsp; J = NO</p>
","f","html-keyboard-response","24","2.1.0","132422","F=YES, J=NO","zzutsfyraz","0","79","73","85","","","","","","lextale","true","false","","","","","","","",""
"895","
  <p style=""font-size: 40px;"">nuder</p>
  <p style=""font-size: 16px;"">F = YES &nbsp;&nbsp;&nbsp; J = NO</p>
","j","html-keyboard-response","25","2.1.0","133318","F=YES, J=NO","zzutsfyraz","0","79","73","85","","","","","","lextale","false","false","","","","","","","",""
"791","
  <p style=""font-size: 40px;"">pillow</p>
  <p style=""font-size: 16px;"">F = YES &nbsp;&nbsp;&nbsp; J = NO</p>
","f","html-keyboard-response","26","2.1.0","134109","F=YES, J=NO","zzutsfyraz","0","79","73","85","","","","","","lextale","true","false","","","","","","","",""
"1479","
  <p style=""font-size: 40px;"">shumble</p>
  <p style=""font-size: 16px;"">F = YES &nbsp;&nbsp;&nbsp; J = NO</p>
","j","html-keyboard-response","27","2.1.0","135589","F=YES, J=NO","zzutsfyraz","0","79","73","85","","","","","","lextale","false","false","","","","","","","",""
"955","
  <p style=""font-size: 40px;"">thirst</p>
  <p style=""font-size: 16px;"">F = YES &nbsp;&nbsp;&nbsp; J = NO</p>
","f","html-keyboard-response","28","2.1.0","136545","F=YES, J=NO","zzutsfyraz","0","79","73","85","","","","","","lextale","true","false","","","","","","","",""
"1145","
  <p style=""font-size: 40px;"">unsail</p>
  <p style=""font-size: 16px;"">F = YES &nbsp;&nbsp;&nbsp; J = NO</p>
","f","html-keyboard-response","29","2.1.0","137691","F=YES, J=NO","zzutsfyraz","0","79","73","85","","","","","","lextale","false","false","","","","","","","",""
"751","
  <p style=""font-size: 40px;"">rifle</p>
  <p style=""font-size: 16px;"">F = YES &nbsp;&nbsp;&nbsp; J = NO</p>
","f","html-keyboard-response","30","2.1.0","138442","F=YES, J=NO","zzutsfyraz","0","79","73","85","","","","","","lextale","true","false","","","","","","","",""
"1886","
  <p style=""font-size: 40px;"">mush</p>
  <p style=""font-size: 16px;"">F = YES &nbsp;&nbsp;&nbsp; J = NO</p>
","f","html-keyboard-response","31","2.1.0","140329","F=YES, J=NO","zzutsfyraz","0","79","73","85","","","","","","lextale","false","false","","","","","","","",""
"1084","
  <p style=""font-size: 40px;"">drench</p>
  <p style=""font-size: 16px;"">F = YES &nbsp;&nbsp;&nbsp; J = NO</p>
","f","html-keyboard-response","32","2.1.0","141413","F=YES, J=NO","zzutsfyraz","0","79","73","85","","","","","","lextale","true","false","","","","","","","",""
"952","
  <p style=""font-size: 40px;"">snirt</p>
  <p style=""font-size: 16px;"">F = YES &nbsp;&nbsp;&nbsp; J = NO</p>
","j","html-keyboard-response","33","2.1.0","142365","F=YES, J=NO","zzutsfyraz","0","79","73","85","","","","","","lextale","false","false","","","","","","","",""
"905","
  <p style=""font-size: 40px;"">bitter</p>
  <p style=""font-size: 16px;"">F = YES &nbsp;&nbsp;&nbsp; J = NO</p>
","f","html-keyboard-response","34","2.1.0","143271","F=YES, J=NO","zzutsfyraz","0","79","73","85","","","","","","lextale","true","false","","","","","","","",""
"1102","
  <p style=""font-size: 40px;"">pliff</p>
  <p style=""font-size: 16px;"">F = YES &nbsp;&nbsp;&nbsp; J = NO</p>
","j","html-keyboard-response","35","2.1.0","144373","F=YES, J=NO","zzutsfyraz","0","79","73","85","","","","","","lextale","false","false","","","","","","","",""
"874","
  <p style=""font-size: 40px;"">tablet</p>
  <p style=""font-size: 16px;"">F = YES &nbsp;&nbsp;&nbsp; J = NO</p>
","f","html-keyboard-response","36","2.1.0","145248","F=YES, J=NO","zzutsfyraz","0","79","73","85","","","","","","lextale","true","false","","","","","","","",""
"941","
  <p style=""font-size: 40px;"">glimmer</p>
  <p style=""font-size: 16px;"">F = YES &nbsp;&nbsp;&nbsp; J = NO</p>
","f","html-keyboard-response","37","2.1.0","146190","F=YES, J=NO","zzutsfyraz","0","79","73","85","","","","","","lextale","true","false","","","","","","","",""
"1173","
  <p style=""font-size: 40px;"">slink</p>
  <p style=""font-size: 16px;"">F = YES &nbsp;&nbsp;&nbsp; J = NO</p>
","j","html-keyboard-response","38","2.1.0","147363","F=YES, J=NO","zzutsfyraz","0","79","73","85","","","","","","lextale","true","false","","","","","","","",""
"746","
  <p style=""font-size: 40px;"">clever</p>
  <p style=""font-size: 16px;"">F = YES &nbsp;&nbsp;&nbsp; J = NO</p>
","f","html-keyboard-response","39","2.1.0","148109","F=YES, J=NO","zzutsfyraz","0","79","73","85","","","","","","lextale","true","false","","","","","","","",""
"1191","
  <p style=""font-size: 40px;"">grum</p>
  <p style=""font-size: 16px;"">F = YES &nbsp;&nbsp;&nbsp; J = NO</p>
","j","html-keyboard-response","40","2.1.0","149301","F=YES, J=NO","zzutsfyraz","0","79","73","85","","","","","","lextale","false","false","","","","","","","",""
"897","
  <p style=""font-size: 40px;"">string</p>
  <p style=""font-size: 16px;"">F = YES &nbsp;&nbsp;&nbsp; J = NO</p>
","f","html-keyboard-response","41","2.1.0","150198","F=YES, J=NO","zzutsfyraz","0","79","73","85","","","","","","lextale","true","false","","","","","","","",""
"942","
  <p style=""font-size: 40px;"">plim</p>
  <p style=""font-size: 16px;"">F = YES &nbsp;&nbsp;&nbsp; J = NO</p>
","j","html-keyboard-response","42","2.1.0","151140","F=YES, J=NO","zzutsfyraz","0","79","73","85","","","","","","lextale","false","false","","","","","","","",""
"759","
  <p style=""font-size: 40px;"">cable</p>
  <p style=""font-size: 16px;"">F = YES &nbsp;&nbsp;&nbsp; J = NO</p>
","f","html-keyboard-response","43","2.1.0","151900","F=YES, J=NO","zzutsfyraz","0","79","73","85","","","","","","lextale","true","false","","","","","","","",""
"1451","
  <p style=""font-size: 40px;"">shrivel</p>
  <p style=""font-size: 16px;"">F = YES &nbsp;&nbsp;&nbsp; J = NO</p>
","j","html-keyboard-response","44","2.1.0","153351","F=YES, J=NO","zzutsfyraz","0","79","73","85","","","","","","lextale","true","false","","","","","","","",""
"1047","
  <p style=""font-size: 40px;"">tarnish</p>
  <p style=""font-size: 16px;"">F = YES &nbsp;&nbsp;&nbsp; J = NO</p>
","f","html-keyboard-response","45","2.1.0","154398","F=YES, J=NO","zzutsfyraz","0","79","73","85","","","","","","lextale","true","false","","","","","","","",""
"840","
  <p style=""font-size: 40px;"">blim</p>
  <p style=""font-size: 16px;"">F = YES &nbsp;&nbsp;&nbsp; J = NO</p>
","j","html-keyboard-response","46","2.1.0","155239","F=YES, J=NO","zzutsfyraz","0","79","73","85","","","","","","lextale","false","false","","","","","","","",""
"2091","
  <p style=""font-size: 40px;"">stifle</p>
  <p style=""font-size: 16px;"">F = YES &nbsp;&nbsp;&nbsp; J = NO</p>
","j","html-keyboard-response","47","2.1.0","157330","F=YES, J=NO","zzutsfyraz","0","79","73","85","","","","","","lextale","true","false","","","","","","","",""
"984","
  <p style=""font-size: 40px;"">bint</p>
  <p style=""font-size: 16px;"">F = YES &nbsp;&nbsp;&nbsp; J = NO</p>
","j","html-keyboard-response","48","2.1.0","158314","F=YES, J=NO","zzutsfyraz","0","79","73","85","","","","","","lextale","false","false","","","","","","","",""
"571","
  <p style=""font-size: 40px;"">purple</p>
  <p style=""font-size: 16px;"">F = YES &nbsp;&nbsp;&nbsp; J = NO</p>
","f","html-keyboard-response","49","2.1.0","158886","F=YES, J=NO","zzutsfyraz","0","79","73","85","","","","","","lextale","true","false","","","","","","","",""
"965","
  <p style=""font-size: 40px;"">wriggle</p>
  <p style=""font-size: 16px;"">F = YES &nbsp;&nbsp;&nbsp; J = NO</p>
","f","html-keyboard-response","50","2.1.0","159851","F=YES, J=NO","zzutsfyraz","0","79","73","85","","","","","","lextale","true","false","","","","","","","",""
"1387","
  <p style=""font-size: 40px;"">mangle</p>
  <p style=""font-size: 16px;"">F = YES &nbsp;&nbsp;&nbsp; J = NO</p>
","f","html-keyboard-response","51","2.1.0","161239","F=YES, J=NO","zzutsfyraz","0","79","73","85","","","","","","lextale","true","false","","","","","","","",""
"1444","
  <p style=""font-size: 40px;"">shramp</p>
  <p style=""font-size: 16px;"">F = YES &nbsp;&nbsp;&nbsp; J = NO</p>
","j","html-keyboard-response","52","2.1.0","162684","F=YES, J=NO","zzutsfyraz","0","79","73","85","","","","","","lextale","false","false","","","","","","","",""
"697","
  <p style=""font-size: 40px;"">flirt</p>
  <p style=""font-size: 16px;"">F = YES &nbsp;&nbsp;&nbsp; J = NO</p>
","f","html-keyboard-response","53","2.1.0","163382","F=YES, J=NO","zzutsfyraz","0","79","73","85","","","","","","lextale","true","false","","","","","","","",""
"783","
  <p style=""font-size: 40px;"">frip</p>
  <p style=""font-size: 16px;"">F = YES &nbsp;&nbsp;&nbsp; J = NO</p>
","j","html-keyboard-response","54","2.1.0","164166","F=YES, J=NO","zzutsfyraz","0","79","73","85","","","","","","lextale","false","false","","","","","","","",""
"984","
  <p style=""font-size: 40px;"">tangle</p>
  <p style=""font-size: 16px;"">F = YES &nbsp;&nbsp;&nbsp; J = NO</p>
","f","html-keyboard-response","55","2.1.0","165151","F=YES, J=NO","zzutsfyraz","0","79","73","85","","","","","","lextale","true","false","","","","","","","",""
"765","
  <p style=""font-size: 40px;"">crumble</p>
  <p style=""font-size: 16px;"">F = YES &nbsp;&nbsp;&nbsp; J = NO</p>
","f","html-keyboard-response","56","2.1.0","165916","F=YES, J=NO","zzutsfyraz","0","79","73","85","","","","","","lextale","true","false","","","","","","","",""
"875","
  <p style=""font-size: 40px;"">wrinkle</p>
  <p style=""font-size: 16px;"">F = YES &nbsp;&nbsp;&nbsp; J = NO</p>
","f","html-keyboard-response","57","2.1.0","166791","F=YES, J=NO","zzutsfyraz","0","79","73","85","","","","","","lextale","true","false","","","","","","","",""
"751","
  <p style=""font-size: 40px;"">slumb</p>
  <p style=""font-size: 16px;"">F = YES &nbsp;&nbsp;&nbsp; J = NO</p>
","j","html-keyboard-response","58","2.1.0","167542","F=YES, J=NO","zzutsfyraz","0","79","73","85","","","","","","lextale","false","false","","","","","","","",""
"782","
  <p style=""font-size: 40px;"">jungle</p>
  <p style=""font-size: 16px;"">F = YES &nbsp;&nbsp;&nbsp; J = NO</p>
","f","html-keyboard-response","59","2.1.0","168325","F=YES, J=NO","zzutsfyraz","0","79","73","85","","","","","","lextale","true","false","","","","","","","",""
"825","
  <p style=""font-size: 40px;"">frolick</p>
  <p style=""font-size: 16px;"">F = YES &nbsp;&nbsp;&nbsp; J = NO</p>
","j","html-keyboard-response","60","2.1.0","169150","F=YES, J=NO","zzutsfyraz","0","79","73","85","","","","","","lextale","false","false","","","","","","","",""
"1848","
      <h2>LexTALE Test Completed</h2>
      <p>Your LexTALE vocabulary score is: <strong>79%</strong></p>
      <p>Press any key to continue.</p>
    "," ","html-keyboard-response","61","2.1.0","170999","F=YES, J=NO","zzutsfyraz","0","79","73","85","","","","","","","","","","","","","","","",""
"23","
    <div style=""max-width: 800px; margin: auto; text-align: left;"">
      <h2>Break Time</h2>
      <p>You have completed the first part of the study.</p>
      <p>You may take a short <strong>30-second break</strong> before continuing.</p>
      <p>When you’re ready, press any key to continue to the final task.</p>
    </div>
  "," ","html-keyboard-response","62","2.1.0","171023","F=YES, J=NO","zzutsfyraz","0","79","73","85","","","","","","","","","","","","","","","",""
"50403","
    <div style=""max-width: 800px; margin: auto; text-align: left;"">
      <h2>Part 2: Lexical Decision Task</h2>
      <p>You will now begin the second part of the study.</p>
      <p>Each trial will follow this sequence:</p>
      <ul>
        <li>A fixation cross (+) appears at the center of the screen.</li>
        <li>You will hear a short beep followed by a spoken word.</li>
        <li>A written word will appear briefly on the screen.</li>
      </ul>
      <p>Your task is to judge whether the <strong>written word</strong> is a real English word.</p>
      <p style=""margin-top: 1em;""><strong>Key responses:</strong></p>
      <ul>
        <li><strong>F</strong> = YES (real English word)</li>
        <li><strong>J</strong> = NO (not a real English word)</li>
      </ul>
      <p>Please respond as quickly and accurately as you can.</p>
      <p style=""margin-top: 2em;"">Press any key to continue.</p>
    </div>
  "," ","html-keyboard-response","63","2.1.0","221426","F=YES, J=NO","zzutsfyraz","0","79","73","85","","","","","","","","","","","","","","","",""
"6099","
    <div style=""max-width: 800px; margin: auto; text-align: left;"">
      <h2>Before You Begin</h2>
      <p>Make sure your sound is turned on.</p>
      <p>You will hear audio during each trial, but your decision should be based only on the <strong>written word</strong> you see on the screen.</p>
      <p><strong>Reminder:</strong></p>
      <ul>
        <li><strong>F</strong> = YES (real English word)</li>
        <li><strong>J</strong> = NO (not a real English word)</li>
      </ul>
      <p style=""margin-top: 2em;"">Press any key when you are ready to begin.</p>
    </div>
  "," ","html-keyboard-response","64","2.1.0","227526","F=YES, J=NO","zzutsfyraz","0","79","73","85","","","","","","","","","","","","","","","",""
"3540","
    <div style=""max-width: 800px; margin: auto; text-align: left;"">
      <h2>Part 2: Practice Trials</h2>
      <p>You will now complete a few <strong>practice trials</strong> to get familiar with the task.</p>
      <p>These trials are <strong>not scored</strong> and are only to help you get used to the format.</p>
      <p style=""margin-top: 2em;"">Press any key to begin.</p>
    </div>
  "," ","html-keyboard-response","65","2.1.0","231067","F=YES, J=NO","zzutsfyraz","0","79","73","85","","","","","","","","","","","","","","","",""
"2083","<p>Starting practice block 1 of 2. Press any key to continue.</p>"," ","html-keyboard-response","66","2.1.0","233150","F=YES, J=NO","zzutsfyraz","0","79","73","85","","","","","","","","","","","","","","","",""
"null","<p style=""font-size: 50px;"">+</p>","null","html-keyboard-response","67","2.1.0","233458","F=YES, J=NO","zzutsfyraz","0","79","73","85","","","","","","","","","","","","","","","",""
"null","audio/beep-329314.mp3","null","audio-keyboard-response","68","2.1.0","235089","F=YES, J=NO","zzutsfyraz","0","79","73","85","","","","","","","","","","","","","","","",""
"null","audio/pine.wav","null","audio-keyboard-response","69","2.1.0","235659","F=YES, J=NO","zzutsfyraz","0","79","73","85","","","","","","","","","","","","","","","",""
"1213","
          <p id=""word"" style=""font-size: 40px;"">crebble</p>
          <p style=""font-size: 16px;"">F = YES &nbsp;&nbsp;&nbsp; J = NO</p>
        ","f","html-keyboard-response","70","2.1.0","236873","F=YES, J=NO","zzutsfyraz","0","79","73","85","","","","","","","","","crebble","pine","pseudoword","pseudoword","j","false","",""
"null","<p style=""font-size: 50px;"">+</p>","null","html-keyboard-response","71","2.1.0","237184","F=YES, J=NO","zzutsfyraz","0","79","73","85","","","","","","","","","","","","","","","",""
"null","audio/beep-329314.mp3","null","audio-keyboard-response","72","2.1.0","238709","F=YES, J=NO","zzutsfyraz","0","79","73","85","","","","","","","","","","","","","","","",""
"null","audio/plot1.wav","null","audio-keyboard-response","73","2.1.0","239299","F=YES, J=NO","zzutsfyraz","0","79","73","85","","","","","","","","","","","","","","","",""
"695","
          <p id=""word"" style=""font-size: 40px;"">glenter</p>
          <p style=""font-size: 16px;"">F = YES &nbsp;&nbsp;&nbsp; J = NO</p>
        ","j","html-keyboard-response","74","2.1.0","239995","F=YES, J=NO","zzutsfyraz","0","79","73","85","","","","","","","","","glenter","plot1","pseudoword","pseudoword","j","true","",""
"null","<p style=""font-size: 50px;"">+</p>","null","html-keyboard-response","75","2.1.0","240301","F=YES, J=NO","zzutsfyraz","0","79","73","85","","","","","","","","","","","","","","","",""
"null","audio/beep-329314.mp3","null","audio-keyboard-response","76","2.1.0","241830","F=YES, J=NO","zzutsfyraz","0","79","73","85","","","","","","","","","","","","","","","",""
"null","audio/breath.wav","null","audio-keyboard-response","77","2.1.0","242500","F=YES, J=NO","zzutsfyraz","0","79","73","85","","","","","","","","","","","","","","","",""
"629","
          <p id=""word"" style=""font-size: 40px;"">pack</p>
          <p style=""font-size: 16px;"">F = YES &nbsp;&nbsp;&nbsp; J = NO</p>
        ","f","html-keyboard-response","78","2.1.0","243130","F=YES, J=NO","zzutsfyraz","0","79","73","85","","","","","","","","","pack","breath","filler","filler","f","true","",""
"null","<p style=""font-size: 50px;"">+</p>","null","html-keyboard-response","79","2.1.0","243441","F=YES, J=NO","zzutsfyraz","0","79","73","85","","","","","","","","","","","","","","","",""
"null","audio/beep-329314.mp3","null","audio-keyboard-response","80","2.1.0","244970","F=YES, J=NO","zzutsfyraz","0","79","73","85","","","","","","","","","","","","","","","",""
"null","audio/belief.wav","null","audio-keyboard-response","81","2.1.0","245620","F=YES, J=NO","zzutsfyraz","0","79","73","85","","","","","","","","","","","","","","","",""
"583","
          <p id=""word"" style=""font-size: 40px;"">read</p>
          <p style=""font-size: 16px;"">F = YES &nbsp;&nbsp;&nbsp; J = NO</p>
        ","f","html-keyboard-response","82","2.1.0","246204","F=YES, J=NO","zzutsfyraz","0","79","73","85","","","","","","","","","read","belief","filler","filler","f","true","",""
"null","<p style=""font-size: 50px;"">+</p>","null","html-keyboard-response","83","2.1.0","246519","F=YES, J=NO","zzutsfyraz","0","79","73","85","","","","","","","","","","","","","","","",""
"null","audio/beep-329314.mp3","null","audio-keyboard-response","84","2.1.0","248050","F=YES, J=NO","zzutsfyraz","0","79","73","85","","","","","","","","","","","","","","","",""
"null","audio/burden.wav","null","audio-keyboard-response","85","2.1.0","248700","F=YES, J=NO","zzutsfyraz","0","79","73","85","","","","","","","","","","","","","","","",""
"580","
          <p id=""word"" style=""font-size: 40px;"">whotth</p>
          <p style=""font-size: 16px;"">F = YES &nbsp;&nbsp;&nbsp; J = NO</p>
        ","j","html-keyboard-response","86","2.1.0","249281","F=YES, J=NO","zzutsfyraz","0","79","73","85","","","","","","","","","whotth","burden","pseudoword","pseudoword","j","true","",""
"null","<p style=""font-size: 50px;"">+</p>","null","html-keyboard-response","87","2.1.0","249590","F=YES, J=NO","zzutsfyraz","0","79","73","85","","","","","","","","","","","","","","","",""
"null","audio/beep-329314.mp3","null","audio-keyboard-response","88","2.1.0","251130","F=YES, J=NO","zzutsfyraz","0","79","73","85","","","","","","","","","","","","","","","",""
"null","audio/bomb1.wav","null","audio-keyboard-response","89","2.1.0","251540","F=YES, J=NO","zzutsfyraz","0","79","73","85","","","","","","","","","","","","","","","",""
"582","
          <p id=""word"" style=""font-size: 40px;"">clean</p>
          <p style=""font-size: 16px;"">F = YES &nbsp;&nbsp;&nbsp; J = NO</p>
        ","f","html-keyboard-response","90","2.1.0","252123","F=YES, J=NO","zzutsfyraz","0","79","73","85","","","","","","","","","clean","bomb1","filler","filler","f","true","",""
"null","<p style=""font-size: 50px;"">+</p>","null","html-keyboard-response","91","2.1.0","252438","F=YES, J=NO","zzutsfyraz","0","79","73","85","","","","","","","","","","","","","","","",""
"null","audio/beep-329314.mp3","null","audio-keyboard-response","92","2.1.0","253970","F=YES, J=NO","zzutsfyraz","0","79","73","85","","","","","","","","","","","","","","","",""
"null","audio/gift1.wav","null","audio-keyboard-response","93","2.1.0","254460","F=YES, J=NO","zzutsfyraz","0","79","73","85","","","","","","","","","","","","","","","",""
"575","
          <p id=""word"" style=""font-size: 40px;"">protsh</p>
          <p style=""font-size: 16px;"">F = YES &nbsp;&nbsp;&nbsp; J = NO</p>
        ","j","html-keyboard-response","94","2.1.0","255036","F=YES, J=NO","zzutsfyraz","0","79","73","85","","","","","","","","","protsh","gift1","pseudoword","pseudoword","j","true","",""
"null","<p style=""font-size: 50px;"">+</p>","null","html-keyboard-response","95","2.1.0","255343","F=YES, J=NO","zzutsfyraz","0","79","73","85","","","","","","","","","","","","","","","",""
"null","audio/beep-329314.mp3","null","audio-keyboard-response","96","2.1.0","256870","F=YES, J=NO","zzutsfyraz","0","79","73","85","","","","","","","","","","","","","","","",""
"null","audio/sand.wav","null","audio-keyboard-response","97","2.1.0","257601","F=YES, J=NO","zzutsfyraz","0","79","73","85","","","","","","","","","","","","","","","",""
"543","
          <p id=""word"" style=""font-size: 40px;"">proted</p>
          <p style=""font-size: 16px;"">F = YES &nbsp;&nbsp;&nbsp; J = NO</p>
        ","f","html-keyboard-response","98","2.1.0","258144","F=YES, J=NO","zzutsfyraz","0","79","73","85","","","","","","","","","proted","sand","pseudoword","pseudoword","j","false","",""
"null","<p style=""font-size: 50px;"">+</p>","null","html-keyboard-response","99","2.1.0","258452","F=YES, J=NO","zzutsfyraz","0","79","73","85","","","","","","","","","","","","","","","",""
"null","audio/beep-329314.mp3","null","audio-keyboard-response","100","2.1.0","259991","F=YES, J=NO","zzutsfyraz","0","79","73","85","","","","","","","","","","","","","","","",""
"null","audio/topic.wav","null","audio-keyboard-response","101","2.1.0","260581","F=YES, J=NO","zzutsfyraz","0","79","73","85","","","","","","","","","","","","","","","",""
"647","
          <p id=""word"" style=""font-size: 40px;"">infortuitist</p>
          <p style=""font-size: 16px;"">F = YES &nbsp;&nbsp;&nbsp; J = NO</p>
        ","j","html-keyboard-response","102","2.1.0","261228","F=YES, J=NO","zzutsfyraz","0","79","73","85","","","","","","","","","infortuitist","topic","pseudoword","pseudoword","j","true","",""
"null","<p style=""font-size: 50px;"">+</p>","null","html-keyboard-response","103","2.1.0","261542","F=YES, J=NO","zzutsfyraz","0","79","73","85","","","","","","","","","","","","","","","",""
"null","audio/beep-329314.mp3","null","audio-keyboard-response","104","2.1.0","263071","F=YES, J=NO","zzutsfyraz","0","79","73","85","","","","","","","","","","","","","","","",""
"null","audio/age1.wav","null","audio-keyboard-response","105","2.1.0","263701","F=YES, J=NO","zzutsfyraz","0","79","73","85","","","","","","","","","","","","","","","",""
"775","
          <p id=""word"" style=""font-size: 40px;"">bake</p>
          <p style=""font-size: 16px;"">F = YES &nbsp;&nbsp;&nbsp; J = NO</p>
        ","f","html-keyboard-response","106","2.1.0","264476","F=YES, J=NO","zzutsfyraz","0","79","73","85","","","","","","","","","bake","age1","filler","filler","f","true","",""
"null","<p style=""font-size: 50px;"">+</p>","null","html-keyboard-response","107","2.1.0","264781","F=YES, J=NO","zzutsfyraz","0","79","73","85","","","","","","","","","","","","","","","",""
"null","audio/beep-329314.mp3","null","audio-keyboard-response","108","2.1.0","266311","F=YES, J=NO","zzutsfyraz","0","79","73","85","","","","","","","","","","","","","","","",""
"null","audio/floor.wav","null","audio-keyboard-response","109","2.1.0","266941","F=YES, J=NO","zzutsfyraz","0","79","73","85","","","","","","","","","","","","","","","",""
"941","
          <p id=""word"" style=""font-size: 40px;"">mop</p>
          <p style=""font-size: 16px;"">F = YES &nbsp;&nbsp;&nbsp; J = NO</p>
        ","j","html-keyboard-response","110","2.1.0","267882","F=YES, J=NO","zzutsfyraz","0","79","73","85","","","","","","","","","mop","floor","filler","filler","f","false","",""
"null","<p style=""font-size: 50px;"">+</p>","null","html-keyboard-response","111","2.1.0","268189","F=YES, J=NO","zzutsfyraz","0","79","73","85","","","","","","","","","","","","","","","",""
"null","audio/beep-329314.mp3","null","audio-keyboard-response","112","2.1.0","269711","F=YES, J=NO","zzutsfyraz","0","79","73","85","","","","","","","","","","","","","","","",""
"null","audio/cinema1.wav","null","audio-keyboard-response","113","2.1.0","270401","F=YES, J=NO","zzutsfyraz","0","79","73","85","","","","","","","","","","","","","","","",""
"737","
          <p id=""word"" style=""font-size: 40px;"">murple</p>
          <p style=""font-size: 16px;"">F = YES &nbsp;&nbsp;&nbsp; J = NO</p>
        ","j","html-keyboard-response","114","2.1.0","271139","F=YES, J=NO","zzutsfyraz","0","79","73","85","","","","","","","","","murple","cinema1","pseudoword","pseudoword","j","true","",""
"1527","<p>Starting practice block 2 of 2. Press any key to continue.</p>"," ","html-keyboard-response","115","2.1.0","272667","F=YES, J=NO","zzutsfyraz","0","79","73","85","","","","","","","","","","","","","","","",""
"null","<p style=""font-size: 50px;"">+</p>","null","html-keyboard-response","116","2.1.0","272973","F=YES, J=NO","zzutsfyraz","0","79","73","85","","","","","","","","","","","","","","","",""
"null","audio/beep-329314.mp3","null","audio-keyboard-response","117","2.1.0","274511","F=YES, J=NO","zzutsfyraz","0","79","73","85","","","","","","","","","","","","","","","",""
"null","audio/test1.wav","null","audio-keyboard-response","118","2.1.0","275141","F=YES, J=NO","zzutsfyraz","0","79","73","85","","","","","","","","","","","","","","","",""
"548","
          <p id=""word"" style=""font-size: 40px;"">twopch</p>
          <p style=""font-size: 16px;"">F = YES &nbsp;&nbsp;&nbsp; J = NO</p>
        ","j","html-keyboard-response","119","2.1.0","275690","F=YES, J=NO","zzutsfyraz","0","79","73","85","","","","","","","","","twopch","test1","pseudoword","pseudoword","j","true","",""
"null","<p style=""font-size: 50px;"">+</p>","null","html-keyboard-response","120","2.1.0","276001","F=YES, J=NO","zzutsfyraz","0","79","73","85","","","","","","","","","","","","","","","",""
"null","audio/beep-329314.mp3","null","audio-keyboard-response","121","2.1.0","277532","F=YES, J=NO","zzutsfyraz","0","79","73","85","","","","","","","","","","","","","","","",""
"null","audio/tunnel.wav","null","audio-keyboard-response","122","2.1.0","278042","F=YES, J=NO","zzutsfyraz","0","79","73","85","","","","","","","","","","","","","","","",""
"602","
          <p id=""word"" style=""font-size: 40px;"">gred</p>
          <p style=""font-size: 16px;"">F = YES &nbsp;&nbsp;&nbsp; J = NO</p>
        ","j","html-keyboard-response","123","2.1.0","278646","F=YES, J=NO","zzutsfyraz","0","79","73","85","","","","","","","","","gred","tunnel","pseudoword","pseudoword","j","true","",""
"null","<p style=""font-size: 50px;"">+</p>","null","html-keyboard-response","124","2.1.0","278949","F=YES, J=NO","zzutsfyraz","0","79","73","85","","","","","","","","","","","","","","","",""
"null","audio/beep-329314.mp3","null","audio-keyboard-response","125","2.1.0","280472","F=YES, J=NO","zzutsfyraz","0","79","73","85","","","","","","","","","","","","","","","",""
"null","audio/bottle.wav","null","audio-keyboard-response","126","2.1.0","281022","F=YES, J=NO","zzutsfyraz","0","79","73","85","","","","","","","","","","","","","","","",""
"482","
          <p id=""word"" style=""font-size: 40px;"">watch</p>
          <p style=""font-size: 16px;"">F = YES &nbsp;&nbsp;&nbsp; J = NO</p>
        ","f","html-keyboard-response","127","2.1.0","281504","F=YES, J=NO","zzutsfyraz","0","79","73","85","","","","","","","","","watch","bottle","filler","filler","f","true","",""
"null","<p style=""font-size: 50px;"">+</p>","null","html-keyboard-response","128","2.1.0","281818","F=YES, J=NO","zzutsfyraz","0","79","73","85","","","","","","","","","","","","","","","",""
"null","audio/beep-329314.mp3","null","audio-keyboard-response","129","2.1.0","283352","F=YES, J=NO","zzutsfyraz","0","79","73","85","","","","","","","","","","","","","","","",""
"null","audio/brain.wav","null","audio-keyboard-response","130","2.1.0","283882","F=YES, J=NO","zzutsfyraz","0","79","73","85","","","","","","","","","","","","","","","",""
"755","
          <p id=""word"" style=""font-size: 40px;"">throw</p>
          <p style=""font-size: 16px;"">F = YES &nbsp;&nbsp;&nbsp; J = NO</p>
        ","f","html-keyboard-response","131","2.1.0","284638","F=YES, J=NO","zzutsfyraz","0","79","73","85","","","","","","","","","throw","brain","filler","filler","f","true","",""
"null","<p style=""font-size: 50px;"">+</p>","null","html-keyboard-response","132","2.1.0","284946","F=YES, J=NO","zzutsfyraz","0","79","73","85","","","","","","","","","","","","","","","",""
"null","audio/beep-329314.mp3","null","audio-keyboard-response","133","2.1.0","286472","F=YES, J=NO","zzutsfyraz","0","79","73","85","","","","","","","","","","","","","","","",""
"null","audio/weight1.wav","null","audio-keyboard-response","134","2.1.0","287122","F=YES, J=NO","zzutsfyraz","0","79","73","85","","","","","","","","","","","","","","","",""
"600","
          <p id=""word"" style=""font-size: 40px;"">crimsh</p>
          <p style=""font-size: 16px;"">F = YES &nbsp;&nbsp;&nbsp; J = NO</p>
        ","j","html-keyboard-response","135","2.1.0","287723","F=YES, J=NO","zzutsfyraz","0","79","73","85","","","","","","","","","crimsh","weight1","pseudoword","pseudoword","j","true","",""
"null","<p style=""font-size: 50px;"">+</p>","null","html-keyboard-response","136","2.1.0","288030","F=YES, J=NO","zzutsfyraz","0","79","73","85","","","","","","","","","","","","","","","",""
"null","audio/beep-329314.mp3","null","audio-keyboard-response","137","2.1.0","289552","F=YES, J=NO","zzutsfyraz","0","79","73","85","","","","","","","","","","","","","","","",""
"null","audio/baby.wav","null","audio-keyboard-response","138","2.1.0","290023","F=YES, J=NO","zzutsfyraz","0","79","73","85","","","","","","","","","","","","","","","",""
"670","
          <p id=""word"" style=""font-size: 40px;"">lift</p>
          <p style=""font-size: 16px;"">F = YES &nbsp;&nbsp;&nbsp; J = NO</p>
        ","f","html-keyboard-response","139","2.1.0","290693","F=YES, J=NO","zzutsfyraz","0","79","73","85","","","","","","","","","lift","baby","filler","filler","f","true","",""
"null","<p style=""font-size: 50px;"">+</p>","null","html-keyboard-response","140","2.1.0","291002","F=YES, J=NO","zzutsfyraz","0","79","73","85","","","","","","","","","","","","","","","",""
"null","audio/beep-329314.mp3","null","audio-keyboard-response","141","2.1.0","292532","F=YES, J=NO","zzutsfyraz","0","79","73","85","","","","","","","","","","","","","","","",""
"null","audio/cave1.wav","null","audio-keyboard-response","142","2.1.0","293142","F=YES, J=NO","zzutsfyraz","0","79","73","85","","","","","","","","","","","","","","","",""
"780","
          <p id=""word"" style=""font-size: 40px;"">blacket</p>
          <p style=""font-size: 16px;"">F = YES &nbsp;&nbsp;&nbsp; J = NO</p>
        ","f","html-keyboard-response","143","2.1.0","293923","F=YES, J=NO","zzutsfyraz","0","79","73","85","","","","","","","","","blacket","cave1","pseudoword","pseudoword","j","false","",""
"null","<p style=""font-size: 50px;"">+</p>","null","html-keyboard-response","144","2.1.0","294229","F=YES, J=NO","zzutsfyraz","0","79","73","85","","","","","","","","","","","","","","","",""
"null","audio/beep-329314.mp3","null","audio-keyboard-response","145","2.1.0","295753","F=YES, J=NO","zzutsfyraz","0","79","73","85","","","","","","","","","","","","","","","",""
"null","audio/stain.wav","null","audio-keyboard-response","146","2.1.0","296423","F=YES, J=NO","zzutsfyraz","0","79","73","85","","","","","","","","","","","","","","","",""
"599","
          <p id=""word"" style=""font-size: 40px;"">rumpsied</p>
          <p style=""font-size: 16px;"">F = YES &nbsp;&nbsp;&nbsp; J = NO</p>
        ","j","html-keyboard-response","147","2.1.0","297022","F=YES, J=NO","zzutsfyraz","0","79","73","85","","","","","","","","","rumpsied","stain","pseudoword","pseudoword","j","true","",""
"null","<p style=""font-size: 50px;"">+</p>","null","html-keyboard-response","148","2.1.0","297324","F=YES, J=NO","zzutsfyraz","0","79","73","85","","","","","","","","","","","","","","","",""
"null","audio/beep-329314.mp3","null","audio-keyboard-response","149","2.1.0","298853","F=YES, J=NO","zzutsfyraz","0","79","73","85","","","","","","","","","","","","","","","",""
"null","audio/terrain.wav","null","audio-keyboard-response","150","2.1.0","299583","F=YES, J=NO","zzutsfyraz","0","79","73","85","","","","","","","","","","","","","","","",""
"598","
          <p id=""word"" style=""font-size: 40px;"">twist</p>
          <p style=""font-size: 16px;"">F = YES &nbsp;&nbsp;&nbsp; J = NO</p>
        ","f","html-keyboard-response","151","2.1.0","300182","F=YES, J=NO","zzutsfyraz","0","79","73","85","","","","","","","","","twist","terrain","filler","filler","f","true","",""
"null","<p style=""font-size: 50px;"">+</p>","null","html-keyboard-response","152","2.1.0","300499","F=YES, J=NO","zzutsfyraz","0","79","73","85","","","","","","","","","","","","","","","",""
"null","audio/beep-329314.mp3","null","audio-keyboard-response","153","2.1.0","302033","F=YES, J=NO","zzutsfyraz","0","79","73","85","","","","","","","","","","","","","","","",""
"null","audio/bridge.wav","null","audio-keyboard-response","154","2.1.0","302683","F=YES, J=NO","zzutsfyraz","0","79","73","85","","","","","","","","","","","","","","","",""
"565","
          <p id=""word"" style=""font-size: 40px;"">crack</p>
          <p style=""font-size: 16px;"">F = YES &nbsp;&nbsp;&nbsp; J = NO</p>
        ","f","html-keyboard-response","155","2.1.0","303249","F=YES, J=NO","zzutsfyraz","0","79","73","85","","","","","","","","","crack","bridge","filler","filler","f","true","",""
"null","<p style=""font-size: 50px;"">+</p>","null","html-keyboard-response","156","2.1.0","303556","F=YES, J=NO","zzutsfyraz","0","79","73","85","","","","","","","","","","","","","","","",""
"null","audio/beep-329314.mp3","null","audio-keyboard-response","157","2.1.0","305093","F=YES, J=NO","zzutsfyraz","0","79","73","85","","","","","","","","","","","","","","","",""
"null","audio/fence.wav","null","audio-keyboard-response","158","2.1.0","305823","F=YES, J=NO","zzutsfyraz","0","79","73","85","","","","","","","","","","","","","","","",""
"627","
          <p id=""word"" style=""font-size: 40px;"">trim</p>
          <p style=""font-size: 16px;"">F = YES &nbsp;&nbsp;&nbsp; J = NO</p>
        ","j","html-keyboard-response","159","2.1.0","306451","F=YES, J=NO","zzutsfyraz","0","79","73","85","","","","","","","","","trim","fence","filler","filler","f","false","",""
"null","<p style=""font-size: 50px;"">+</p>","null","html-keyboard-response","160","2.1.0","306761","F=YES, J=NO","zzutsfyraz","0","79","73","85","","","","","","","","","","","","","","","",""
"null","audio/beep-329314.mp3","null","audio-keyboard-response","161","2.1.0","308293","F=YES, J=NO","zzutsfyraz","0","79","73","85","","","","","","","","","","","","","","","",""
"null","audio/birth1.wav","null","audio-keyboard-response","162","2.1.0","308923","F=YES, J=NO","zzutsfyraz","0","79","73","85","","","","","","","","","","","","","","","",""
"623","
          <p id=""word"" style=""font-size: 40px;"">peel</p>
          <p style=""font-size: 16px;"">F = YES &nbsp;&nbsp;&nbsp; J = NO</p>
        ","f","html-keyboard-response","163","2.1.0","309547","F=YES, J=NO","zzutsfyraz","0","79","73","85","","","","","","","","","peel","birth1","filler","filler","f","true","",""
"7314","
    <div style=""max-width: 800px; margin: auto; text-align: left;"">
      <h2>Part 2: Main Trials</h2>
      <p>Great job on the practice trials!</p>
      <p>You will now begin the <strong>main set of trials</strong>.</p>
      <p>Remember your key assignments:</p>
      <ul>
        <li><strong>F</strong> = YES (real English word)</li>
        <li><strong>J</strong> = NO (not a real English word)</li>
      </ul>
      <p>Try to respond as <strong>quickly and accurately</strong> as possible.</p>
      <p style=""margin-top: 2em;"">Press any key to begin the main trials.</p>
    </div>
  "," ","html-keyboard-response","164","2.1.0","316861","F=YES, J=NO","zzutsfyraz","0","79","73","85","","","","","","","","","","","","","","","",""
"1346","<p>Starting main block 1 of 8. Press any key to continue.</p>"," ","html-keyboard-response","165","2.1.0","318207","F=YES, J=NO","zzutsfyraz","0","79","73","85","","","","","","","","","","","","","","","",""
"null","<p style=""font-size: 50px;"">+</p>","null","html-keyboard-response","166","2.1.0","318517","F=YES, J=NO","zzutsfyraz","0","79","73","85","","","","","","","","","","","","","","","",""
"null","audio/beep-329314.mp3","null","audio-keyboard-response","167","2.1.0","320024","F=YES, J=NO","zzutsfyraz","0","79","73","85","","","","","","","","","","","","","","","",""
"null","audio/key1.wav","null","audio-keyboard-response","168","2.1.0","320364","F=YES, J=NO","zzutsfyraz","0","79","73","85","","","","","","","","","","","","","","","",""
"627","
          <p id=""word"" style=""font-size: 40px;"">sminsh</p>
          <p style=""font-size: 16px;"">F = YES &nbsp;&nbsp;&nbsp; J = NO</p>
        ","j","html-keyboard-response","169","2.1.0","320992","F=YES, J=NO","zzutsfyraz","0","79","73","85","","","","","","","","","sminsh","key1","pseudoword","pseudoword","j","true","",""
"null","<p style=""font-size: 50px;"">+</p>","null","html-keyboard-response","170","2.1.0","321301","F=YES, J=NO","zzutsfyraz","0","79","73","85","","","","","","","","","","","","","","","",""
"null","audio/beep-329314.mp3","null","audio-keyboard-response","171","2.1.0","322824","F=YES, J=NO","zzutsfyraz","0","79","73","85","","","","","","","","","","","","","","","",""
"null","audio/survey1.wav","null","audio-keyboard-response","172","2.1.0","323645","F=YES, J=NO","zzutsfyraz","0","79","73","85","","","","","","","","","","","","","","","",""
"1053","
          <p id=""word"" style=""font-size: 40px;"">imploth</p>
          <p style=""font-size: 16px;"">F = YES &nbsp;&nbsp;&nbsp; J = NO</p>
        ","f","html-keyboard-response","173","2.1.0","324699","F=YES, J=NO","zzutsfyraz","0","79","73","85","","","","","","","","","imploth","survey1","pseudoword","pseudoword","j","false","",""
"null","<p style=""font-size: 50px;"">+</p>","null","html-keyboard-response","174","2.1.0","325014","F=YES, J=NO","zzutsfyraz","0","79","73","85","","","","","","","","","","","","","","","",""
"null","audio/beep-329314.mp3","null","audio-keyboard-response","175","2.1.0","326544","F=YES, J=NO","zzutsfyraz","0","79","73","85","","","","","","","","","","","","","","","",""
"null","audio/cancer1.wav","null","audio-keyboard-response","176","2.1.0","327125","F=YES, J=NO","zzutsfyraz","0","79","73","85","","","","","","","","","","","","","","","",""
"550","
          <p id=""word"" style=""font-size: 40px;"">fight</p>
          <p style=""font-size: 16px;"">F = YES &nbsp;&nbsp;&nbsp; J = NO</p>
        ","f","html-keyboard-response","177","2.1.0","327676","F=YES, J=NO","zzutsfyraz","0","79","73","85","","","","","","","","","fight","cancer1","metaphor","experimental","f","true","",""
"null","<p style=""font-size: 50px;"">+</p>","null","html-keyboard-response","178","2.1.0","327982","F=YES, J=NO","zzutsfyraz","0","79","73","85","","","","","","","","","","","","","","","",""
"null","audio/beep-329314.mp3","null","audio-keyboard-response","179","2.1.0","329504","F=YES, J=NO","zzutsfyraz","0","79","73","85","","","","","","","","","","","","","","","",""
"null","audio/corpse1.wav","null","audio-keyboard-response","180","2.1.0","330165","F=YES, J=NO","zzutsfyraz","0","79","73","85","","","","","","","","","","","","","","","",""
"603","
          <p id=""word"" style=""font-size: 40px;"">glonet</p>
          <p style=""font-size: 16px;"">F = YES &nbsp;&nbsp;&nbsp; J = NO</p>
        ","j","html-keyboard-response","181","2.1.0","330768","F=YES, J=NO","zzutsfyraz","0","79","73","85","","","","","","","","","glonet","corpse1","pseudoword","pseudoword","j","true","",""
"null","<p style=""font-size: 50px;"">+</p>","null","html-keyboard-response","182","2.1.0","331073","F=YES, J=NO","zzutsfyraz","0","79","73","85","","","","","","","","","","","","","","","",""
"null","audio/beep-329314.mp3","null","audio-keyboard-response","183","2.1.0","332605","F=YES, J=NO","zzutsfyraz","0","79","73","85","","","","","","","","","","","","","","","",""
"null","audio/trust.wav","null","audio-keyboard-response","184","2.1.0","333225","F=YES, J=NO","zzutsfyraz","0","79","73","85","","","","","","","","","","","","","","","",""
"615","
          <p id=""word"" style=""font-size: 40px;"">swint</p>
          <p style=""font-size: 16px;"">F = YES &nbsp;&nbsp;&nbsp; J = NO</p>
        ","j","html-keyboard-response","185","2.1.0","333841","F=YES, J=NO","zzutsfyraz","0","79","73","85","","","","","","","","","swint","trust","pseudoword","pseudoword","j","true","",""
"null","<p style=""font-size: 50px;"">+</p>","null","html-keyboard-response","186","2.1.0","334142","F=YES, J=NO","zzutsfyraz","0","79","73","85","","","","","","","","","","","","","","","",""
"null","audio/beep-329314.mp3","null","audio-keyboard-response","187","2.1.0","335665","F=YES, J=NO","zzutsfyraz","0","79","73","85","","","","","","","","","","","","","","","",""
"null","audio/dollar.wav","null","audio-keyboard-response","188","2.1.0","336145","F=YES, J=NO","zzutsfyraz","0","79","73","85","","","","","","","","","","","","","","","",""
"544","
          <p id=""word"" style=""font-size: 40px;"">gliptism</p>
          <p style=""font-size: 16px;"">F = YES &nbsp;&nbsp;&nbsp; J = NO</p>
        ","j","html-keyboard-response","189","2.1.0","336690","F=YES, J=NO","zzutsfyraz","0","79","73","85","","","","","","","","","gliptism","dollar","pseudoword","pseudoword","j","true","",""
"null","<p style=""font-size: 50px;"">+</p>","null","html-keyboard-response","190","2.1.0","337005","F=YES, J=NO","zzutsfyraz","0","79","73","85","","","","","","","","","","","","","","","",""
"null","audio/beep-329314.mp3","null","audio-keyboard-response","191","2.1.0","338545","F=YES, J=NO","zzutsfyraz","0","79","73","85","","","","","","","","","","","","","","","",""
"null","audio/mile1.wav","null","audio-keyboard-response","192","2.1.0","339045","F=YES, J=NO","zzutsfyraz","0","79","73","85","","","","","","","","","","","","","","","",""
"842","
          <p id=""word"" style=""font-size: 40px;"">writch</p>
          <p style=""font-size: 16px;"">F = YES &nbsp;&nbsp;&nbsp; J = NO</p>
        ","j","html-keyboard-response","193","2.1.0","339888","F=YES, J=NO","zzutsfyraz","0","79","73","85","","","","","","","","","writch","mile1","pseudoword","pseudoword","j","true","",""
"null","<p style=""font-size: 50px;"">+</p>","null","html-keyboard-response","194","2.1.0","340195","F=YES, J=NO","zzutsfyraz","0","79","73","85","","","","","","","","","","","","","","","",""
"null","audio/beep-329314.mp3","null","audio-keyboard-response","195","2.1.0","341725","F=YES, J=NO","zzutsfyraz","0","79","73","85","","","","","","","","","","","","","","","",""
"null","audio/handle.wav","null","audio-keyboard-response","196","2.1.0","342385","F=YES, J=NO","zzutsfyraz","0","79","73","85","","","","","","","","","","","","","","","",""
"673","
          <p id=""word"" style=""font-size: 40px;"">moutes</p>
          <p style=""font-size: 16px;"">F = YES &nbsp;&nbsp;&nbsp; J = NO</p>
        ","j","html-keyboard-response","197","2.1.0","343058","F=YES, J=NO","zzutsfyraz","0","79","73","85","","","","","","","","","moutes","handle","pseudoword","pseudoword","j","true","",""
"null","<p style=""font-size: 50px;"">+</p>","null","html-keyboard-response","198","2.1.0","343370","F=YES, J=NO","zzutsfyraz","0","79","73","85","","","","","","","","","","","","","","","",""
"null","audio/beep-329314.mp3","null","audio-keyboard-response","199","2.1.0","344905","F=YES, J=NO","zzutsfyraz","0","79","73","85","","","","","","","","","","","","","","","",""
"null","audio/truth1.wav","null","audio-keyboard-response","200","2.1.0","345505","F=YES, J=NO","zzutsfyraz","0","79","73","85","","","","","","","","","","","","","","","",""
"645","
          <p id=""word"" style=""font-size: 40px;"">calitom</p>
          <p style=""font-size: 16px;"">F = YES &nbsp;&nbsp;&nbsp; J = NO</p>
        ","j","html-keyboard-response","201","2.1.0","346151","F=YES, J=NO","zzutsfyraz","0","79","73","85","","","","","","","","","calitom","truth1","pseudoword","pseudoword","j","true","",""
"null","<p style=""font-size: 50px;"">+</p>","null","html-keyboard-response","202","2.1.0","346458","F=YES, J=NO","zzutsfyraz","0","79","73","85","","","","","","","","","","","","","","","",""
"null","audio/beep-329314.mp3","null","audio-keyboard-response","203","2.1.0","347986","F=YES, J=NO","zzutsfyraz","0","79","73","85","","","","","","","","","","","","","","","",""
"null","audio/client1.wav","null","audio-keyboard-response","204","2.1.0","348665","F=YES, J=NO","zzutsfyraz","0","79","73","85","","","","","","","","","","","","","","","",""
"602","
          <p id=""word"" style=""font-size: 40px;"">droothe</p>
          <p style=""font-size: 16px;"">F = YES &nbsp;&nbsp;&nbsp; J = NO</p>
        ","j","html-keyboard-response","205","2.1.0","349269","F=YES, J=NO","zzutsfyraz","0","79","73","85","","","","","","","","","droothe","client1","pseudoword","pseudoword","j","true","",""
"null","<p style=""font-size: 50px;"">+</p>","null","html-keyboard-response","206","2.1.0","349572","F=YES, J=NO","zzutsfyraz","0","79","73","85","","","","","","","","","","","","","","","",""
"null","audio/beep-329314.mp3","null","audio-keyboard-response","207","2.1.0","351106","F=YES, J=NO","zzutsfyraz","0","79","73","85","","","","","","","","","","","","","","","",""
"null","audio/winter.wav","null","audio-keyboard-response","208","2.1.0","351706","F=YES, J=NO","zzutsfyraz","0","79","73","85","","","","","","","","","","","","","","","",""
"738","
          <p id=""word"" style=""font-size: 40px;"">straven</p>
          <p style=""font-size: 16px;"">F = YES &nbsp;&nbsp;&nbsp; J = NO</p>
        ","j","html-keyboard-response","209","2.1.0","352444","F=YES, J=NO","zzutsfyraz","0","79","73","85","","","","","","","","","straven","winter","pseudoword","pseudoword","j","true","",""
"null","<p style=""font-size: 50px;"">+</p>","null","html-keyboard-response","210","2.1.0","352753","F=YES, J=NO","zzutsfyraz","0","79","73","85","","","","","","","","","","","","","","","",""
"null","audio/beep-329314.mp3","null","audio-keyboard-response","211","2.1.0","354286","F=YES, J=NO","zzutsfyraz","0","79","73","85","","","","","","","","","","","","","","","",""
"null","audio/dome.wav","null","audio-keyboard-response","212","2.1.0","354786","F=YES, J=NO","zzutsfyraz","0","79","73","85","","","","","","","","","","","","","","","",""
"1063","
          <p id=""word"" style=""font-size: 40px;"">scrupliness</p>
          <p style=""font-size: 16px;"">F = YES &nbsp;&nbsp;&nbsp; J = NO</p>
        ","f","html-keyboard-response","213","2.1.0","355850","F=YES, J=NO","zzutsfyraz","0","79","73","85","","","","","","","","","scrupliness","dome","pseudoword","pseudoword","j","false","",""
"null","<p style=""font-size: 50px;"">+</p>","null","html-keyboard-response","214","2.1.0","356163","F=YES, J=NO","zzutsfyraz","0","79","73","85","","","","","","","","","","","","","","","",""
"null","audio/beep-329314.mp3","null","audio-keyboard-response","215","2.1.0","357686","F=YES, J=NO","zzutsfyraz","0","79","73","85","","","","","","","","","","","","","","","",""
"null","audio/pain1.wav","null","audio-keyboard-response","216","2.1.0","358186","F=YES, J=NO","zzutsfyraz","0","79","73","85","","","","","","","","","","","","","","","",""
"791","
          <p id=""word"" style=""font-size: 40px;"">tritted</p>
          <p style=""font-size: 16px;"">F = YES &nbsp;&nbsp;&nbsp; J = NO</p>
        ","j","html-keyboard-response","217","2.1.0","358978","F=YES, J=NO","zzutsfyraz","0","79","73","85","","","","","","","","","tritted","pain1","pseudoword","pseudoword","j","true","",""
"null","<p style=""font-size: 50px;"">+</p>","null","html-keyboard-response","218","2.1.0","359287","F=YES, J=NO","zzutsfyraz","0","79","73","85","","","","","","","","","","","","","","","",""
"null","audio/beep-329314.mp3","null","audio-keyboard-response","219","2.1.0","360826","F=YES, J=NO","zzutsfyraz","0","79","73","85","","","","","","","","","","","","","","","",""
"null","audio/budget1.wav","null","audio-keyboard-response","220","2.1.0","361546","F=YES, J=NO","zzutsfyraz","0","79","73","85","","","","","","","","","","","","","","","",""
"578","
          <p id=""word"" style=""font-size: 40px;"">sulist</p>
          <p style=""font-size: 16px;"">F = YES &nbsp;&nbsp;&nbsp; J = NO</p>
        ","j","html-keyboard-response","221","2.1.0","362125","F=YES, J=NO","zzutsfyraz","0","79","73","85","","","","","","","","","sulist","budget1","pseudoword","pseudoword","j","true","",""
"null","<p style=""font-size: 50px;"">+</p>","null","html-keyboard-response","222","2.1.0","362440","F=YES, J=NO","zzutsfyraz","0","79","73","85","","","","","","","","","","","","","","","",""
"null","audio/beep-329314.mp3","null","audio-keyboard-response","223","2.1.0","363967","F=YES, J=NO","zzutsfyraz","0","79","73","85","","","","","","","","","","","","","","","",""
"null","audio/breath.wav","null","audio-keyboard-response","224","2.1.0","364526","F=YES, J=NO","zzutsfyraz","0","79","73","85","","","","","","","","","","","","","","","",""
"956","
          <p id=""word"" style=""font-size: 40px;"">twets</p>
          <p style=""font-size: 16px;"">F = YES &nbsp;&nbsp;&nbsp; J = NO</p>
        ","j","html-keyboard-response","225","2.1.0","365483","F=YES, J=NO","zzutsfyraz","0","79","73","85","","","","","","","","","twets","breath","pseudoword","pseudoword","j","true","",""
"null","<p style=""font-size: 50px;"">+</p>","null","html-keyboard-response","226","2.1.0","365800","F=YES, J=NO","zzutsfyraz","0","79","73","85","","","","","","","","","","","","","","","",""
"null","audio/beep-329314.mp3","null","audio-keyboard-response","227","2.1.0","367327","F=YES, J=NO","zzutsfyraz","0","79","73","85","","","","","","","","","","","","","","","",""
"null","audio/cancer1.wav","null","audio-keyboard-response","228","2.1.0","367867","F=YES, J=NO","zzutsfyraz","0","79","73","85","","","","","","","","","","","","","","","",""
"592","
          <p id=""word"" style=""font-size: 40px;"">draw</p>
          <p style=""font-size: 16px;"">F = YES &nbsp;&nbsp;&nbsp; J = NO</p>
        ","f","html-keyboard-response","229","2.1.0","368460","F=YES, J=NO","zzutsfyraz","0","79","73","85","","","","","","","","","draw","cancer1","filler","filler","f","true","",""
"2608","<p>Excellent! You have finished block 1 of 8.</p>
                     <p>Feel free to take a 30 second break.</p>
                     <p>Press any key when you're ready to continue.</p>"," ","html-keyboard-response","230","2.1.0","371068","F=YES, J=NO","zzutsfyraz","0","79","73","85","","","","","","","","","","","","","","","",""
"1101","<p>Starting main block 2 of 8. Press any key to continue.</p>"," ","html-keyboard-response","231","2.1.0","372170","F=YES, J=NO","zzutsfyraz","0","79","73","85","","","","","","","","","","","","","","","",""
"null","<p style=""font-size: 50px;"">+</p>","null","html-keyboard-response","232","2.1.0","372483","F=YES, J=NO","zzutsfyraz","0","79","73","85","","","","","","","","","","","","","","","",""
"null","audio/beep-329314.mp3","null","audio-keyboard-response","233","2.1.0","374007","F=YES, J=NO","zzutsfyraz","0","79","73","85","","","","","","","","","","","","","","","",""
"null","audio/size1.wav","null","audio-keyboard-response","234","2.1.0","374747","F=YES, J=NO","zzutsfyraz","0","79","73","85","","","","","","","","","","","","","","","",""
"544","
          <p id=""word"" style=""font-size: 40px;"">clear</p>
          <p style=""font-size: 16px;"">F = YES &nbsp;&nbsp;&nbsp; J = NO</p>
        ","f","html-keyboard-response","235","2.1.0","375292","F=YES, J=NO","zzutsfyraz","0","79","73","85","","","","","","","","","clear","size1","unrelated","experimental","f","true","",""
"null","<p style=""font-size: 50px;"">+</p>","null","html-keyboard-response","236","2.1.0","375593","F=YES, J=NO","zzutsfyraz","0","79","73","85","","","","","","","","","","","","","","","",""
"null","audio/beep-329314.mp3","null","audio-keyboard-response","237","2.1.0","377127","F=YES, J=NO","zzutsfyraz","0","79","73","85","","","","","","","","","","","","","","","",""
"null","audio/strength.wav","null","audio-keyboard-response","238","2.1.0","377887","F=YES, J=NO","zzutsfyraz","0","79","73","85","","","","","","","","","","","","","","","",""
"575","
          <p id=""word"" style=""font-size: 40px;"">plabet</p>
          <p style=""font-size: 16px;"">F = YES &nbsp;&nbsp;&nbsp; J = NO</p>
        ","j","html-keyboard-response","239","2.1.0","378463","F=YES, J=NO","zzutsfyraz","0","79","73","85","","","","","","","","","plabet","strength","pseudoword","pseudoword","j","true","",""
"null","<p style=""font-size: 50px;"">+</p>","null","html-keyboard-response","240","2.1.0","378779","F=YES, J=NO","zzutsfyraz","0","79","73","85","","","","","","","","","","","","","","","",""
"null","audio/beep-329314.mp3","null","audio-keyboard-response","241","2.1.0","380307","F=YES, J=NO","zzutsfyraz","0","79","73","85","","","","","","","","","","","","","","","",""
"null","audio/hawk1.wav","null","audio-keyboard-response","242","2.1.0","380947","F=YES, J=NO","zzutsfyraz","0","79","73","85","","","","","","","","","","","","","","","",""
"631","
          <p id=""word"" style=""font-size: 40px;"">ostach</p>
          <p style=""font-size: 16px;"">F = YES &nbsp;&nbsp;&nbsp; J = NO</p>
        ","j","html-keyboard-response","243","2.1.0","381579","F=YES, J=NO","zzutsfyraz","0","79","73","85","","","","","","","","","ostach","hawk1","pseudoword","pseudoword","j","true","",""
"null","<p style=""font-size: 50px;"">+</p>","null","html-keyboard-response","244","2.1.0","381892","F=YES, J=NO","zzutsfyraz","0","79","73","85","","","","","","","","","","","","","","","",""
"null","audio/beep-329314.mp3","null","audio-keyboard-response","245","2.1.0","383428","F=YES, J=NO","zzutsfyraz","0","79","73","85","","","","","","","","","","","","","","","",""
"null","audio/beach1.wav","null","audio-keyboard-response","246","2.1.0","384107","F=YES, J=NO","zzutsfyraz","0","79","73","85","","","","","","","","","","","","","","","",""
"711","
          <p id=""word"" style=""font-size: 40px;"">drive</p>
          <p style=""font-size: 16px;"">F = YES &nbsp;&nbsp;&nbsp; J = NO</p>
        ","f","html-keyboard-response","247","2.1.0","384819","F=YES, J=NO","zzutsfyraz","0","79","73","85","","","","","","","","","drive","beach1","filler","filler","f","true","",""
"null","<p style=""font-size: 50px;"">+</p>","null","html-keyboard-response","248","2.1.0","385129","F=YES, J=NO","zzutsfyraz","0","79","73","85","","","","","","","","","","","","","","","",""
"null","audio/beep-329314.mp3","null","audio-keyboard-response","249","2.1.0","386668","F=YES, J=NO","zzutsfyraz","0","79","73","85","","","","","","","","","","","","","","","",""
"null","audio/account1.wav","null","audio-keyboard-response","250","2.1.0","387448","F=YES, J=NO","zzutsfyraz","0","79","73","85","","","","","","","","","","","","","","","",""
"580","
          <p id=""word"" style=""font-size: 40px;"">paint</p>
          <p style=""font-size: 16px;"">F = YES &nbsp;&nbsp;&nbsp; J = NO</p>
        ","f","html-keyboard-response","251","2.1.0","388028","F=YES, J=NO","zzutsfyraz","0","79","73","85","","","","","","","","","paint","account1","filler","filler","f","true","",""
"null","<p style=""font-size: 50px;"">+</p>","null","html-keyboard-response","252","2.1.0","388332","F=YES, J=NO","zzutsfyraz","0","79","73","85","","","","","","","","","","","","","","","",""
"null","audio/beep-329314.mp3","null","audio-keyboard-response","253","2.1.0","389868","F=YES, J=NO","zzutsfyraz","0","79","73","85","","","","","","","","","","","","","","","",""
"null","audio/planet1.wav","null","audio-keyboard-response","254","2.1.0","390548","F=YES, J=NO","zzutsfyraz","0","79","73","85","","","","","","","","","","","","","","","",""
"663","
          <p id=""word"" style=""font-size: 40px;"">cratched</p>
          <p style=""font-size: 16px;"">F = YES &nbsp;&nbsp;&nbsp; J = NO</p>
        ","j","html-keyboard-response","255","2.1.0","391212","F=YES, J=NO","zzutsfyraz","0","79","73","85","","","","","","","","","cratched","planet1","pseudoword","pseudoword","j","true","",""
"null","<p style=""font-size: 50px;"">+</p>","null","html-keyboard-response","256","2.1.0","391517","F=YES, J=NO","zzutsfyraz","0","79","73","85","","","","","","","","","","","","","","","",""
"null","audio/beep-329314.mp3","null","audio-keyboard-response","257","2.1.0","393048","F=YES, J=NO","zzutsfyraz","0","79","73","85","","","","","","","","","","","","","","","",""
"null","audio/tax1.wav","null","audio-keyboard-response","258","2.1.0","393948","F=YES, J=NO","zzutsfyraz","0","79","73","85","","","","","","","","","","","","","","","",""
"679","
          <p id=""word"" style=""font-size: 40px;"">snate</p>
          <p style=""font-size: 16px;"">F = YES &nbsp;&nbsp;&nbsp; J = NO</p>
        ","j","html-keyboard-response","259","2.1.0","394628","F=YES, J=NO","zzutsfyraz","0","79","73","85","","","","","","","","","snate","tax1","pseudoword","pseudoword","j","true","",""
"null","<p style=""font-size: 50px;"">+</p>","null","html-keyboard-response","260","2.1.0","394936","F=YES, J=NO","zzutsfyraz","0","79","73","85","","","","","","","","","","","","","","","",""
"null","audio/beep-329314.mp3","null","audio-keyboard-response","261","2.1.0","396468","F=YES, J=NO","zzutsfyraz","0","79","73","85","","","","","","","","","","","","","","","",""
"null","audio/vehicle1.wav","null","audio-keyboard-response","262","2.1.0","397228","F=YES, J=NO","zzutsfyraz","0","79","73","85","","","","","","","","","","","","","","","",""
"712","
          <p id=""word"" style=""font-size: 40px;"">dropt</p>
          <p style=""font-size: 16px;"">F = YES &nbsp;&nbsp;&nbsp; J = NO</p>
        ","j","html-keyboard-response","263","2.1.0","397942","F=YES, J=NO","zzutsfyraz","0","79","73","85","","","","","","","","","dropt","vehicle1","pseudoword","pseudoword","j","true","",""
"null","<p style=""font-size: 50px;"">+</p>","null","html-keyboard-response","264","2.1.0","398250","F=YES, J=NO","zzutsfyraz","0","79","73","85","","","","","","","","","","","","","","","",""
"null","audio/beep-329314.mp3","null","audio-keyboard-response","265","2.1.0","399789","F=YES, J=NO","zzutsfyraz","0","79","73","85","","","","","","","","","","","","","","","",""
"null","audio/cash1.wav","null","audio-keyboard-response","266","2.1.0","400348","F=YES, J=NO","zzutsfyraz","0","79","73","85","","","","","","","","","","","","","","","",""
"705","
          <p id=""word"" style=""font-size: 40px;"">splear</p>
          <p style=""font-size: 16px;"">F = YES &nbsp;&nbsp;&nbsp; J = NO</p>
        ","j","html-keyboard-response","267","2.1.0","401053","F=YES, J=NO","zzutsfyraz","0","79","73","85","","","","","","","","","splear","cash1","pseudoword","pseudoword","j","true","",""
"null","<p style=""font-size: 50px;"">+</p>","null","html-keyboard-response","268","2.1.0","401365","F=YES, J=NO","zzutsfyraz","0","79","73","85","","","","","","","","","","","","","","","",""
"null","audio/beep-329314.mp3","null","audio-keyboard-response","269","2.1.0","402889","F=YES, J=NO","zzutsfyraz","0","79","73","85","","","","","","","","","","","","","","","",""
"null","audio/arm.wav","null","audio-keyboard-response","270","2.1.0","403569","F=YES, J=NO","zzutsfyraz","0","79","73","85","","","","","","","","","","","","","","","",""
"732","
          <p id=""word"" style=""font-size: 40px;"">fold</p>
          <p style=""font-size: 16px;"">F = YES &nbsp;&nbsp;&nbsp; J = NO</p>
        ","f","html-keyboard-response","271","2.1.0","404301","F=YES, J=NO","zzutsfyraz","0","79","73","85","","","","","","","","","fold","arm","filler","filler","f","true","",""
"null","<p style=""font-size: 50px;"">+</p>","null","html-keyboard-response","272","2.1.0","404604","F=YES, J=NO","zzutsfyraz","0","79","73","85","","","","","","","","","","","","","","","",""
"null","audio/beep-329314.mp3","null","audio-keyboard-response","273","2.1.0","406129","F=YES, J=NO","zzutsfyraz","0","79","73","85","","","","","","","","","","","","","","","",""
"null","audio/cloud1.wav","null","audio-keyboard-response","274","2.1.0","406889","F=YES, J=NO","zzutsfyraz","0","79","73","85","","","","","","","","","","","","","","","",""
"640","
          <p id=""word"" style=""font-size: 40px;"">brotant</p>
          <p style=""font-size: 16px;"">F = YES &nbsp;&nbsp;&nbsp; J = NO</p>
        ","j","html-keyboard-response","275","2.1.0","407530","F=YES, J=NO","zzutsfyraz","0","79","73","85","","","","","","","","","brotant","cloud1","pseudoword","pseudoword","j","true","",""
"null","<p style=""font-size: 50px;"">+</p>","null","html-keyboard-response","276","2.1.0","407832","F=YES, J=NO","zzutsfyraz","0","79","73","85","","","","","","","","","","","","","","","",""
"null","audio/beep-329314.mp3","null","audio-keyboard-response","277","2.1.0","409369","F=YES, J=NO","zzutsfyraz","0","79","73","85","","","","","","","","","","","","","","","",""
"null","audio/road.wav","null","audio-keyboard-response","278","2.1.0","409789","F=YES, J=NO","zzutsfyraz","0","79","73","85","","","","","","","","","","","","","","","",""
"615","
          <p id=""word"" style=""font-size: 40px;"">flood</p>
          <p style=""font-size: 16px;"">F = YES &nbsp;&nbsp;&nbsp; J = NO</p>
        ","f","html-keyboard-response","279","2.1.0","410405","F=YES, J=NO","zzutsfyraz","0","79","73","85","","","","","","","","","flood","road","literal","experimental","f","true","",""
"null","<p style=""font-size: 50px;"">+</p>","null","html-keyboard-response","280","2.1.0","410716","F=YES, J=NO","zzutsfyraz","0","79","73","85","","","","","","","","","","","","","","","",""
"null","audio/beep-329314.mp3","null","audio-keyboard-response","281","2.1.0","412249","F=YES, J=NO","zzutsfyraz","0","79","73","85","","","","","","","","","","","","","","","",""
"null","audio/smirk1.wav","null","audio-keyboard-response","282","2.1.0","413089","F=YES, J=NO","zzutsfyraz","0","79","73","85","","","","","","","","","","","","","","","",""
"649","
          <p id=""word"" style=""font-size: 40px;"">wipe</p>
          <p style=""font-size: 16px;"">F = YES &nbsp;&nbsp;&nbsp; J = NO</p>
        ","f","html-keyboard-response","283","2.1.0","413739","F=YES, J=NO","zzutsfyraz","0","79","73","85","","","","","","","","","wipe","smirk1","metaphor","experimental","f","true","",""
"null","<p style=""font-size: 50px;"">+</p>","null","html-keyboard-response","284","2.1.0","414047","F=YES, J=NO","zzutsfyraz","0","79","73","85","","","","","","","","","","","","","","","",""
"null","audio/beep-329314.mp3","null","audio-keyboard-response","285","2.1.0","415569","F=YES, J=NO","zzutsfyraz","0","79","73","85","","","","","","","","","","","","","","","",""
"null","audio/prisoner.wav","null","audio-keyboard-response","286","2.1.0","416069","F=YES, J=NO","zzutsfyraz","0","79","73","85","","","","","","","","","","","","","","","",""
"773","
          <p id=""word"" style=""font-size: 40px;"">release</p>
          <p style=""font-size: 16px;"">F = YES &nbsp;&nbsp;&nbsp; J = NO</p>
        ","f","html-keyboard-response","287","2.1.0","416843","F=YES, J=NO","zzutsfyraz","0","79","73","85","","","","","","","","","release","prisoner","literal","experimental","f","true","",""
"null","<p style=""font-size: 50px;"">+</p>","null","html-keyboard-response","288","2.1.0","417154","F=YES, J=NO","zzutsfyraz","0","79","73","85","","","","","","","","","","","","","","","",""
"null","audio/beep-329314.mp3","null","audio-keyboard-response","289","2.1.0","418690","F=YES, J=NO","zzutsfyraz","0","79","73","85","","","","","","","","","","","","","","","",""
"null","audio/mind.wav","null","audio-keyboard-response","290","2.1.0","419309","F=YES, J=NO","zzutsfyraz","0","79","73","85","","","","","","","","","","","","","","","",""
"630","
          <p id=""word"" style=""font-size: 40px;"">crainate</p>
          <p style=""font-size: 16px;"">F = YES &nbsp;&nbsp;&nbsp; J = NO</p>
        ","j","html-keyboard-response","291","2.1.0","419940","F=YES, J=NO","zzutsfyraz","0","79","73","85","","","","","","","","","crainate","mind","pseudoword","pseudoword","j","true","",""
"null","<p style=""font-size: 50px;"">+</p>","null","html-keyboard-response","292","2.1.0","420243","F=YES, J=NO","zzutsfyraz","0","79","73","85","","","","","","","","","","","","","","","",""
"null","audio/beep-329314.mp3","null","audio-keyboard-response","293","2.1.0","421770","F=YES, J=NO","zzutsfyraz","0","79","73","85","","","","","","","","","","","","","","","",""
"null","audio/battle1.wav","null","audio-keyboard-response","294","2.1.0","422230","F=YES, J=NO","zzutsfyraz","0","79","73","85","","","","","","","","","","","","","","","",""
"646","
          <p id=""word"" style=""font-size: 40px;"">boil</p>
          <p style=""font-size: 16px;"">F = YES &nbsp;&nbsp;&nbsp; J = NO</p>
        ","f","html-keyboard-response","295","2.1.0","422876","F=YES, J=NO","zzutsfyraz","0","79","73","85","","","","","","","","","boil","battle1","filler","filler","f","true","",""
"969","<p>Excellent! You have finished block 2 of 8.</p>
                     <p>Feel free to take a 30 second break.</p>
                     <p>Press any key when you're ready to continue.</p>"," ","html-keyboard-response","296","2.1.0","423845","F=YES, J=NO","zzutsfyraz","0","79","73","85","","","","","","","","","","","","","","","",""
"637","<p>Starting main block 3 of 8. Press any key to continue.</p>"," ","html-keyboard-response","297","2.1.0","424483","F=YES, J=NO","zzutsfyraz","0","79","73","85","","","","","","","","","","","","","","","",""
"null","<p style=""font-size: 50px;"">+</p>","null","html-keyboard-response","298","2.1.0","424792","F=YES, J=NO","zzutsfyraz","0","79","73","85","","","","","","","","","","","","","","","",""
"null","audio/beep-329314.mp3","null","audio-keyboard-response","299","2.1.0","426330","F=YES, J=NO","zzutsfyraz","0","79","73","85","","","","","","","","","","","","","","","",""
"null","audio/novel.wav","null","audio-keyboard-response","300","2.1.0","426850","F=YES, J=NO","zzutsfyraz","0","79","73","85","","","","","","","","","","","","","","","",""
"540","
          <p id=""word"" style=""font-size: 40px;"">type</p>
          <p style=""font-size: 16px;"">F = YES &nbsp;&nbsp;&nbsp; J = NO</p>
        ","f","html-keyboard-response","301","2.1.0","427391","F=YES, J=NO","zzutsfyraz","0","79","73","85","","","","","","","","","type","novel","filler","filler","f","true","",""
"null","<p style=""font-size: 50px;"">+</p>","null","html-keyboard-response","302","2.1.0","427693","F=YES, J=NO","zzutsfyraz","0","79","73","85","","","","","","","","","","","","","","","",""
"null","audio/beep-329314.mp3","null","audio-keyboard-response","303","2.1.0","429230","F=YES, J=NO","zzutsfyraz","0","79","73","85","","","","","","","","","","","","","","","",""
"null","audio/effort.wav","null","audio-keyboard-response","304","2.1.0","429950","F=YES, J=NO","zzutsfyraz","0","79","73","85","","","","","","","","","","","","","","","",""
"516","
          <p id=""word"" style=""font-size: 40px;"">whonk</p>
          <p style=""font-size: 16px;"">F = YES &nbsp;&nbsp;&nbsp; J = NO</p>
        ","j","html-keyboard-response","305","2.1.0","430467","F=YES, J=NO","zzutsfyraz","0","79","73","85","","","","","","","","","whonk","effort","pseudoword","pseudoword","j","true","",""
"null","<p style=""font-size: 50px;"">+</p>","null","html-keyboard-response","306","2.1.0","430772","F=YES, J=NO","zzutsfyraz","0","79","73","85","","","","","","","","","","","","","","","",""
"null","audio/beep-329314.mp3","null","audio-keyboard-response","307","2.1.0","432310","F=YES, J=NO","zzutsfyraz","0","79","73","85","","","","","","","","","","","","","","","",""
"null","audio/noise1.wav","null","audio-keyboard-response","308","2.1.0","433190","F=YES, J=NO","zzutsfyraz","0","79","73","85","","","","","","","","","","","","","","","",""
"591","
          <p id=""word"" style=""font-size: 40px;"">build</p>
          <p style=""font-size: 16px;"">F = YES &nbsp;&nbsp;&nbsp; J = NO</p>
        ","f","html-keyboard-response","309","2.1.0","433782","F=YES, J=NO","zzutsfyraz","0","79","73","85","","","","","","","","","build","noise1","unrelated","experimental","f","true","",""
"null","<p style=""font-size: 50px;"">+</p>","null","html-keyboard-response","310","2.1.0","434089","F=YES, J=NO","zzutsfyraz","0","79","73","85","","","","","","","","","","","","","","","",""
"null","audio/beep-329314.mp3","null","audio-keyboard-response","311","2.1.0","435611","F=YES, J=NO","zzutsfyraz","0","79","73","85","","","","","","","","","","","","","","","",""
"null","audio/cash1.wav","null","audio-keyboard-response","312","2.1.0","436170","F=YES, J=NO","zzutsfyraz","0","79","73","85","","","","","","","","","","","","","","","",""
"587","
          <p id=""word"" style=""font-size: 40px;"">invest</p>
          <p style=""font-size: 16px;"">F = YES &nbsp;&nbsp;&nbsp; J = NO</p>
        ","f","html-keyboard-response","313","2.1.0","436758","F=YES, J=NO","zzutsfyraz","0","79","73","85","","","","","","","","","invest","cash1","literal","experimental","f","true","",""
"null","<p style=""font-size: 50px;"">+</p>","null","html-keyboard-response","314","2.1.0","437067","F=YES, J=NO","zzutsfyraz","0","79","73","85","","","","","","","","","","","","","","","",""
"null","audio/beep-329314.mp3","null","audio-keyboard-response","315","2.1.0","438591","F=YES, J=NO","zzutsfyraz","0","79","73","85","","","","","","","","","","","","","","","",""
"null","audio/ankle1.wav","null","audio-keyboard-response","316","2.1.0","439111","F=YES, J=NO","zzutsfyraz","0","79","73","85","","","","","","","","","","","","","","","",""
"616","
          <p id=""word"" style=""font-size: 40px;"">switm</p>
          <p style=""font-size: 16px;"">F = YES &nbsp;&nbsp;&nbsp; J = NO</p>
        ","j","html-keyboard-response","317","2.1.0","439727","F=YES, J=NO","zzutsfyraz","0","79","73","85","","","","","","","","","switm","ankle1","pseudoword","pseudoword","j","true","",""
"null","<p style=""font-size: 50px;"">+</p>","null","html-keyboard-response","318","2.1.0","440036","F=YES, J=NO","zzutsfyraz","0","79","73","85","","","","","","","","","","","","","","","",""
"null","audio/beep-329314.mp3","null","audio-keyboard-response","319","2.1.0","441571","F=YES, J=NO","zzutsfyraz","0","79","73","85","","","","","","","","","","","","","","","",""
"null","audio/bush1.wav","null","audio-keyboard-response","320","2.1.0","442071","F=YES, J=NO","zzutsfyraz","0","79","73","85","","","","","","","","","","","","","","","",""
"664","
          <p id=""word"" style=""font-size: 40px;"">platined</p>
          <p style=""font-size: 16px;"">F = YES &nbsp;&nbsp;&nbsp; J = NO</p>
        ","f","html-keyboard-response","321","2.1.0","442735","F=YES, J=NO","zzutsfyraz","0","79","73","85","","","","","","","","","platined","bush1","pseudoword","pseudoword","j","false","",""
"null","<p style=""font-size: 50px;"">+</p>","null","html-keyboard-response","322","2.1.0","443041","F=YES, J=NO","zzutsfyraz","0","79","73","85","","","","","","","","","","","","","","","",""
"null","audio/beep-329314.mp3","null","audio-keyboard-response","323","2.1.0","444571","F=YES, J=NO","zzutsfyraz","0","79","73","85","","","","","","","","","","","","","","","",""
"null","audio/pig.wav","null","audio-keyboard-response","324","2.1.0","444951","F=YES, J=NO","zzutsfyraz","0","79","73","85","","","","","","","","","","","","","","","",""
"597","
          <p id=""word"" style=""font-size: 40px;"">tirlike</p>
          <p style=""font-size: 16px;"">F = YES &nbsp;&nbsp;&nbsp; J = NO</p>
        ","j","html-keyboard-response","325","2.1.0","445548","F=YES, J=NO","zzutsfyraz","0","79","73","85","","","","","","","","","tirlike","pig","pseudoword","pseudoword","j","true","",""
"null","<p style=""font-size: 50px;"">+</p>","null","html-keyboard-response","326","2.1.0","445854","F=YES, J=NO","zzutsfyraz","0","79","73","85","","","","","","","","","","","","","","","",""
"null","audio/beep-329314.mp3","null","audio-keyboard-response","327","2.1.0","447391","F=YES, J=NO","zzutsfyraz","0","79","73","85","","","","","","","","","","","","","","","",""
"null","audio/meal.wav","null","audio-keyboard-response","328","2.1.0","448211","F=YES, J=NO","zzutsfyraz","0","79","73","85","","","","","","","","","","","","","","","",""
"679","
          <p id=""word"" style=""font-size: 40px;"">gallite</p>
          <p style=""font-size: 16px;"">F = YES &nbsp;&nbsp;&nbsp; J = NO</p>
        ","j","html-keyboard-response","329","2.1.0","448890","F=YES, J=NO","zzutsfyraz","0","79","73","85","","","","","","","","","gallite","meal","pseudoword","pseudoword","j","true","",""
"null","<p style=""font-size: 50px;"">+</p>","null","html-keyboard-response","330","2.1.0","449198","F=YES, J=NO","zzutsfyraz","0","79","73","85","","","","","","","","","","","","","","","",""
"null","audio/beep-329314.mp3","null","audio-keyboard-response","331","2.1.0","450731","F=YES, J=NO","zzutsfyraz","0","79","73","85","","","","","","","","","","","","","","","",""
"null","audio/smirk1.wav","null","audio-keyboard-response","332","2.1.0","451451","F=YES, J=NO","zzutsfyraz","0","79","73","85","","","","","","","","","","","","","","","",""
"701","
          <p id=""word"" style=""font-size: 40px;"">snopt</p>
          <p style=""font-size: 16px;"">F = YES &nbsp;&nbsp;&nbsp; J = NO</p>
        ","j","html-keyboard-response","333","2.1.0","452154","F=YES, J=NO","zzutsfyraz","0","79","73","85","","","","","","","","","snopt","smirk1","pseudoword","pseudoword","j","true","",""
"null","<p style=""font-size: 50px;"">+</p>","null","html-keyboard-response","334","2.1.0","452464","F=YES, J=NO","zzutsfyraz","0","79","73","85","","","","","","","","","","","","","","","",""
"null","audio/beep-329314.mp3","null","audio-keyboard-response","335","2.1.0","453992","F=YES, J=NO","zzutsfyraz","0","79","73","85","","","","","","","","","","","","","","","",""
"null","audio/flaw.wav","null","audio-keyboard-response","336","2.1.0","454612","F=YES, J=NO","zzutsfyraz","0","79","73","85","","","","","","","","","","","","","","","",""
"563","
          <p id=""word"" style=""font-size: 40px;"">thwool</p>
          <p style=""font-size: 16px;"">F = YES &nbsp;&nbsp;&nbsp; J = NO</p>
        ","j","html-keyboard-response","337","2.1.0","455175","F=YES, J=NO","zzutsfyraz","0","79","73","85","","","","","","","","","thwool","flaw","pseudoword","pseudoword","j","true","",""
"null","<p style=""font-size: 50px;"">+</p>","null","html-keyboard-response","338","2.1.0","455482","F=YES, J=NO","zzutsfyraz","0","79","73","85","","","","","","","","","","","","","","","",""
"null","audio/beep-329314.mp3","null","audio-keyboard-response","339","2.1.0","457012","F=YES, J=NO","zzutsfyraz","0","79","73","85","","","","","","","","","","","","","","","",""
"null","audio/window1.wav","null","audio-keyboard-response","340","2.1.0","457612","F=YES, J=NO","zzutsfyraz","0","79","73","85","","","","","","","","","","","","","","","",""
"611","
          <p id=""word"" style=""font-size: 40px;"">toss</p>
          <p style=""font-size: 16px;"">F = YES &nbsp;&nbsp;&nbsp; J = NO</p>
        ","f","html-keyboard-response","341","2.1.0","458224","F=YES, J=NO","zzutsfyraz","0","79","73","85","","","","","","","","","toss","window1","filler","filler","f","true","",""
"null","<p style=""font-size: 50px;"">+</p>","null","html-keyboard-response","342","2.1.0","458536","F=YES, J=NO","zzutsfyraz","0","79","73","85","","","","","","","","","","","","","","","",""
"null","audio/beep-329314.mp3","null","audio-keyboard-response","343","2.1.0","460072","F=YES, J=NO","zzutsfyraz","0","79","73","85","","","","","","","","","","","","","","","",""
"null","audio/voice.wav","null","audio-keyboard-response","344","2.1.0","460772","F=YES, J=NO","zzutsfyraz","0","79","73","85","","","","","","","","","","","","","","","",""
"779","
          <p id=""word"" style=""font-size: 40px;"">grintle</p>
          <p style=""font-size: 16px;"">F = YES &nbsp;&nbsp;&nbsp; J = NO</p>
        ","j","html-keyboard-response","345","2.1.0","461551","F=YES, J=NO","zzutsfyraz","0","79","73","85","","","","","","","","","grintle","voice","pseudoword","pseudoword","j","true","",""
"null","<p style=""font-size: 50px;"">+</p>","null","html-keyboard-response","346","2.1.0","461857","F=YES, J=NO","zzutsfyraz","0","79","73","85","","","","","","","","","","","","","","","",""
"null","audio/beep-329314.mp3","null","audio-keyboard-response","347","2.1.0","463392","F=YES, J=NO","zzutsfyraz","0","79","73","85","","","","","","","","","","","","","","","",""
"null","audio/roof1.wav","null","audio-keyboard-response","348","2.1.0","463932","F=YES, J=NO","zzutsfyraz","0","79","73","85","","","","","","","","","","","","","","","",""
"615","
          <p id=""word"" style=""font-size: 40px;"">construct</p>
          <p style=""font-size: 16px;"">F = YES &nbsp;&nbsp;&nbsp; J = NO</p>
        ","f","html-keyboard-response","349","2.1.0","464547","F=YES, J=NO","zzutsfyraz","0","79","73","85","","","","","","","","","construct","roof1","literal","experimental","f","true","",""
"null","<p style=""font-size: 50px;"">+</p>","null","html-keyboard-response","350","2.1.0","464858","F=YES, J=NO","zzutsfyraz","0","79","73","85","","","","","","","","","","","","","","","",""
"null","audio/beep-329314.mp3","null","audio-keyboard-response","351","2.1.0","466392","F=YES, J=NO","zzutsfyraz","0","79","73","85","","","","","","","","","","","","","","","",""
"null","audio/cloud1.wav","null","audio-keyboard-response","352","2.1.0","466932","F=YES, J=NO","zzutsfyraz","0","79","73","85","","","","","","","","","","","","","","","",""
"692","
          <p id=""word"" style=""font-size: 40px;"">scrap</p>
          <p style=""font-size: 16px;"">F = YES &nbsp;&nbsp;&nbsp; J = NO</p>
        ","f","html-keyboard-response","353","2.1.0","467624","F=YES, J=NO","zzutsfyraz","0","79","73","85","","","","","","","","","scrap","cloud1","unrelated","experimental","f","true","",""
"null","<p style=""font-size: 50px;"">+</p>","null","html-keyboard-response","354","2.1.0","467938","F=YES, J=NO","zzutsfyraz","0","79","73","85","","","","","","","","","","","","","","","",""
"null","audio/beep-329314.mp3","null","audio-keyboard-response","355","2.1.0","469472","F=YES, J=NO","zzutsfyraz","0","79","73","85","","","","","","","","","","","","","","","",""
"null","audio/storm1.wav","null","audio-keyboard-response","356","2.1.0","470172","F=YES, J=NO","zzutsfyraz","0","79","73","85","","","","","","","","","","","","","","","",""
"534","
          <p id=""word"" style=""font-size: 40px;"">climb</p>
          <p style=""font-size: 16px;"">F = YES &nbsp;&nbsp;&nbsp; J = NO</p>
        ","f","html-keyboard-response","357","2.1.0","470707","F=YES, J=NO","zzutsfyraz","0","79","73","85","","","","","","","","","climb","storm1","unrelated","experimental","f","true","",""
"null","<p style=""font-size: 50px;"">+</p>","null","html-keyboard-response","358","2.1.0","471016","F=YES, J=NO","zzutsfyraz","0","79","73","85","","","","","","","","","","","","","","","",""
"null","audio/beep-329314.mp3","null","audio-keyboard-response","359","2.1.0","472553","F=YES, J=NO","zzutsfyraz","0","79","73","85","","","","","","","","","","","","","","","",""
"null","audio/ankle1.wav","null","audio-keyboard-response","360","2.1.0","473072","F=YES, J=NO","zzutsfyraz","0","79","73","85","","","","","","","","","","","","","","","",""
"511","
          <p id=""word"" style=""font-size: 40px;"">kick</p>
          <p style=""font-size: 16px;"">F = YES &nbsp;&nbsp;&nbsp; J = NO</p>
        ","f","html-keyboard-response","361","2.1.0","473584","F=YES, J=NO","zzutsfyraz","0","79","73","85","","","","","","","","","kick","ankle1","filler","filler","f","true","",""
"692","<p>Excellent! You have finished block 3 of 8.</p>
                     <p>Feel free to take a 30 second break.</p>
                     <p>Press any key when you're ready to continue.</p>"," ","html-keyboard-response","362","2.1.0","474276","F=YES, J=NO","zzutsfyraz","0","79","73","85","","","","","","","","","","","","","","","",""
"654","<p>Starting main block 4 of 8. Press any key to continue.</p>"," ","html-keyboard-response","363","2.1.0","474931","F=YES, J=NO","zzutsfyraz","0","79","73","85","","","","","","","","","","","","","","","",""
"null","<p style=""font-size: 50px;"">+</p>","null","html-keyboard-response","364","2.1.0","475242","F=YES, J=NO","zzutsfyraz","0","79","73","85","","","","","","","","","","","","","","","",""
"null","audio/beep-329314.mp3","null","audio-keyboard-response","365","2.1.0","476773","F=YES, J=NO","zzutsfyraz","0","79","73","85","","","","","","","","","","","","","","","",""
"null","audio/foot1.wav","null","audio-keyboard-response","366","2.1.0","477333","F=YES, J=NO","zzutsfyraz","0","79","73","85","","","","","","","","","","","","","","","",""
"575","
          <p id=""word"" style=""font-size: 40px;"">thrutt</p>
          <p style=""font-size: 16px;"">F = YES &nbsp;&nbsp;&nbsp; J = NO</p>
        ","j","html-keyboard-response","367","2.1.0","477908","F=YES, J=NO","zzutsfyraz","0","79","73","85","","","","","","","","","thrutt","foot1","pseudoword","pseudoword","j","true","",""
"null","<p style=""font-size: 50px;"">+</p>","null","html-keyboard-response","368","2.1.0","478221","F=YES, J=NO","zzutsfyraz","0","79","73","85","","","","","","","","","","","","","","","",""
"null","audio/beep-329314.mp3","null","audio-keyboard-response","369","2.1.0","479753","F=YES, J=NO","zzutsfyraz","0","79","73","85","","","","","","","","","","","","","","","",""
"null","audio/goal.wav","null","audio-keyboard-response","370","2.1.0","480153","F=YES, J=NO","zzutsfyraz","0","79","73","85","","","","","","","","","","","","","","","",""
"639","
          <p id=""word"" style=""font-size: 40px;"">support</p>
          <p style=""font-size: 16px;"">F = YES &nbsp;&nbsp;&nbsp; J = NO</p>
        ","f","html-keyboard-response","371","2.1.0","480793","F=YES, J=NO","zzutsfyraz","0","79","73","85","","","","","","","","","support","goal","metaphor","experimental","f","true","",""
"null","<p style=""font-size: 50px;"">+</p>","null","html-keyboard-response","372","2.1.0","481109","F=YES, J=NO","zzutsfyraz","0","79","73","85","","","","","","","","","","","","","","","",""
"null","audio/beep-329314.mp3","null","audio-keyboard-response","373","2.1.0","482633","F=YES, J=NO","zzutsfyraz","0","79","73","85","","","","","","","","","","","","","","","",""
"null","audio/uncle1.wav","null","audio-keyboard-response","374","2.1.0","483233","F=YES, J=NO","zzutsfyraz","0","79","73","85","","","","","","","","","","","","","","","",""
"882","
          <p id=""word"" style=""font-size: 40px;"">dramble</p>
          <p style=""font-size: 16px;"">F = YES &nbsp;&nbsp;&nbsp; J = NO</p>
        ","f","html-keyboard-response","375","2.1.0","484115","F=YES, J=NO","zzutsfyraz","0","79","73","85","","","","","","","","","dramble","uncle1","pseudoword","pseudoword","j","false","",""
"null","<p style=""font-size: 50px;"">+</p>","null","html-keyboard-response","376","2.1.0","484432","F=YES, J=NO","zzutsfyraz","0","79","73","85","","","","","","","","","","","","","","","",""
"null","audio/beep-329314.mp3","null","audio-keyboard-response","377","2.1.0","485974","F=YES, J=NO","zzutsfyraz","0","79","73","85","","","","","","","","","","","","","","","",""
"null","audio/winter.wav","null","audio-keyboard-response","378","2.1.0","486533","F=YES, J=NO","zzutsfyraz","0","79","73","85","","","","","","","","","","","","","","","",""
"544","
          <p id=""word"" style=""font-size: 40px;"">expose</p>
          <p style=""font-size: 16px;"">F = YES &nbsp;&nbsp;&nbsp; J = NO</p>
        ","f","html-keyboard-response","379","2.1.0","487078","F=YES, J=NO","zzutsfyraz","0","79","73","85","","","","","","","","","expose","winter","unrelated","experimental","f","true","",""
"null","<p style=""font-size: 50px;"">+</p>","null","html-keyboard-response","380","2.1.0","487385","F=YES, J=NO","zzutsfyraz","0","79","73","85","","","","","","","","","","","","","","","",""
"null","audio/beep-329314.mp3","null","audio-keyboard-response","381","2.1.0","488913","F=YES, J=NO","zzutsfyraz","0","79","73","85","","","","","","","","","","","","","","","",""
"null","audio/tomato.wav","null","audio-keyboard-response","382","2.1.0","489614","F=YES, J=NO","zzutsfyraz","0","79","73","85","","","","","","","","","","","","","","","",""
"869","
          <p id=""word"" style=""font-size: 40px;"">gladies</p>
          <p style=""font-size: 16px;"">F = YES &nbsp;&nbsp;&nbsp; J = NO</p>
        ","j","html-keyboard-response","383","2.1.0","490484","F=YES, J=NO","zzutsfyraz","0","79","73","85","","","","","","","","","gladies","tomato","pseudoword","pseudoword","j","true","",""
"null","<p style=""font-size: 50px;"">+</p>","null","html-keyboard-response","384","2.1.0","490792","F=YES, J=NO","zzutsfyraz","0","79","73","85","","","","","","","","","","","","","","","",""
"null","audio/beep-329314.mp3","null","audio-keyboard-response","385","2.1.0","492314","F=YES, J=NO","zzutsfyraz","0","79","73","85","","","","","","","","","","","","","","","",""
"null","audio/butter1.wav","null","audio-keyboard-response","386","2.1.0","493194","F=YES, J=NO","zzutsfyraz","0","79","73","85","","","","","","","","","","","","","","","",""
"708","
          <p id=""word"" style=""font-size: 40px;"">chew</p>
          <p style=""font-size: 16px;"">F = YES &nbsp;&nbsp;&nbsp; J = NO</p>
        ","f","html-keyboard-response","387","2.1.0","493902","F=YES, J=NO","zzutsfyraz","0","79","73","85","","","","","","","","","chew","butter1","filler","filler","f","true","",""
"null","<p style=""font-size: 50px;"">+</p>","null","html-keyboard-response","388","2.1.0","494216","F=YES, J=NO","zzutsfyraz","0","79","73","85","","","","","","","","","","","","","","","",""
"null","audio/beep-329314.mp3","null","audio-keyboard-response","389","2.1.0","495754","F=YES, J=NO","zzutsfyraz","0","79","73","85","","","","","","","","","","","","","","","",""
"null","audio/neck.wav","null","audio-keyboard-response","390","2.1.0","496314","F=YES, J=NO","zzutsfyraz","0","79","73","85","","","","","","","","","","","","","","","",""
"503","
          <p id=""word"" style=""font-size: 40px;"">share</p>
          <p style=""font-size: 16px;"">F = YES &nbsp;&nbsp;&nbsp; J = NO</p>
        ","f","html-keyboard-response","391","2.1.0","496817","F=YES, J=NO","zzutsfyraz","0","79","73","85","","","","","","","","","share","neck","unrelated","experimental","f","true","",""
